time,pos_x,pos_y,pos_z,yaw,vel_x,vel_y,vel_z,vel_yaw,acc_x,acc_y,acc_z,acc_yaw
0.0,8.528108767892183e-17,3.378583138414022e-17,4.3499581247623427e-17,3.623492036637894e-17,0.0,0.0,0.0,0.0,0.0,0.0,0.0,0.0
0.01,1.7792679874532746e-07,6.389034917080392e-08,6.878269469918358e-07,1.257853109837986e-07,5.336088906711726e-05,1.916299517380665e-05,0.0002059135364619727,3.7690271684684095e-05,0.010665309032608629,0.0038309517853392845,0.041009033280020424,0.007519936417423915
0.02,1.4220389195068426e-06,5.107926587431872e-07,5.467909780480445e-06,1.0026610477764234e-06,0.0002131679481884479,7.658574846737345e-05,0.0008167216890157174,0.00015003744198956013,0.021289148326089965,0.007651917398850977,0.08098037358462848,0.014931486927168188
0.03,4.794716007479996e-06,1.7228017788469221e-06,1.8337455049283672e-05,3.371787621544887e-06,0.000479003909429973,0.0001721673714093277,0.0018220910388952489,0.00033596086793165564,0.03187100377188822,0.011462691489913125,0.11992272311144846,0.022235294747994794
0.04,1.1354139323006648e-05,4.08099340733304e-06,4.319077022439704e-05,7.9635511745282e-06,0.0008504463637720826,0.00030580492202206424,0.0032117751893108075,0.0005943863387156038,0.042410361261447614,0.015263068707903775,0.15784478405810468,0.029432003098665713
0.05,2.2154240330804772e-05,7.965403554745426e-06,8.382013391879972e-05,1.5497627901949803e-05,0.0013270677611096095,0.00047739340482175836,0.004975614765448877,0.0009242460757336575,0.052906706686212314,0.01905284370220096,0.19475525862222132,0.03652225519794289
0.06,3.824464928911286e-05,1.3755008009258607e-05,0.00014391666610721687,2.6683048373893756e-05,0.0019084354102518275,0.0006868257708183654,0.007103537414472182,0.0013244787325656887,0.06335952593762657,0.022831811122182744,0.23066284900142275,0.0435066942645883
0.07,6.0670643838834426e-05,2.1827701801615597e-05,0.00022707119834588236,4.221826185718098e-05,0.002594111478922454,0.000933992917515622,0.009585557805519696,0.001794029394979191,0.0737683049071346,0.02659976561722716,0.26557625739333335,0.05038596351736394
0.08,9.047309759268223e-05,3.256027867006562e-05,0.00033677514399230033,6.279120063724532e-05,0.0033836529937596466,0.0012187836889110443,0.012411777629706628,0.002331849580929275,0.08413252948618058,0.030356501836712246,0.2995041859955772,0.05716070617503175
0.09,0.0001286884287243229,4.632841052530203e-05,0.00047642136842500907,8.907934434000996e-05,0.004276611840316005,0.0015410848754959289,0.015572385600124429,0.0029368972405586723,0.09445168556620867,0.034101814430016045,0.3324553370057786,0.0638315654563537
0.1,0.00017634854855752135,6.35066269154e-05,0.000649305059263342,0.00012174978425376344,0.005272534763058573,0.0019007812142553537,0.019057657451840796,0.003608136756197735,0.10472525903866317,0.03783549804651662,0.36443841262156196,0.07039918458009177
0.11,0.0002344808101552851,8.446829449075447e-05,0.0008586245965871918,0.00016145928765103594,0.006370963365368837,0.002297755388668178,0.022857955941899686,0.004344538942364435,0.11495273579498833,0.04155734733559203,0.3954621150405517,0.07686420676500798
0.12,0.0003041079569090085,0.00010958559646901767,0.0011074824231567693,0.00020885436211047536,0.0075714341095427205,0.0027318880287070368,0.026963730849321268,0.00514508104576436,0.12513360172662819,0.04526715694662026,0.4255351464603717,0.08322727522986419
0.13,0.00038624807112761764,0.00013922951210003733,0.0013988859146323715,0.00026457131983872366,0.008873478316790596,0.0032030577108383518,0.031365518975101966,0.0060087467452907255,0.13526734272502705,0.0489647215289794,0.45466620907864663,0.08948903319342244
0.14,0.0004819145226267148,0.0001737697961307943,0.0017357482497941399,0.0003292363419922932,0.010276622167237274,0.003711140958022322,0.03605394414221447,0.0069345261520243565,0.14535344468162917,0.05264983573204749,0.48286400509300065,0.09565012387444469
0.15,0.0005921159173177219,0.00021357495827033996,0.002120889280761822,0.00040346554299944254,0.011780386699922006,0.004256012239712926,0.04101971719560767,0.007921415809233707,0.15539139348787873,0.05632229420520257,0.5101372367010581,0.10171119049169294
0.16,0.0007178560457970259,0.0002590122426547348,0.002557036403214538,0.00048786503488205263,0.013384287812798486,0.004837543971857924,0.04625363600220672,0.008968418692374844,0.16538067503521986,0.05998189159782269,0.5364946061004432,0.10767287626392912
0.17,0.0008601338319351231,0.00031044760731198563,0.00304682542661054,0.0005830309915775035,0.015087836262734858,0.005455606516898857,0.05174658545091304,0.010074544209091457,0.1753207752150968,0.06362842255928587,0.5619448154887801,0.1135358244099152
0.18,0.0010199432814657634,0.0003682457036269836,0.0035928014444069744,0.0006895497132605503,0.016890537665513693,0.006110068183771046,0.05748953745260425,0.011238808199214854,0.18521117991895383,0.06726168173897018,0.5864965670636931,0.11930067814841315
0.19,0.001198273430575094,0.0004327698558064419,0.004197419704279647,0.0008079976906651989,0.018791892495832015,0.006800795227903592,0.06347355094013425,0.012460232934763968,0.1950513750382351,0.07088146378625368,0.6101585630228069,0.12496808069818498
0.2,0.0013961082944908055,0.0005043820403438337,0.004863046478342781,0.0009389416694065831,0.020791396087301295,0.007527651851219378,0.06968977186833314,0.013737847119945343,0.20484084646438488,0.07448756335051437,0.6329395055637453,0.13053867527799262
0.21,0.0016144268160712752,0.00058344286548433,0.005591959933368787,0.00108293871430284,0.022888538632447428,0.008290500202135065,0.07612943321400734,0.015070685891153148,0.21457908008884732,0.07807977508113033,0.654848096884133,0.13601310510659806
0.22,0.0018542028143947106,0.000670311550689737,0.006386351001008015,0.0012405362736969865,0.02508280518271077,0.009089200375561097,0.0827838549759394,0.01645779081696917,0.22426556180306656,0.08165789362747956,0.6758930391815937,0.14139201340276317
0.23,0.002116404933348296,0.0007653459061034346,0.007248324248008524,0.001412272243778795,0.0273736756484461,0.009923610412901697,0.0896444441748882,0.01789820989816282,0.23389977749848692,0.08522171363894017,0.6960830346537523,0.1466760433852501
0.24,0.002401996590217336,0.0008689023120153138,0.008179898746435847,0.0015986750329066715,0.02976062479892266,0.010793586302054866,0.09670269485358886,0.019390997567691123,0.2434812130665526,0.08877102976489015,0.7154267854982328,0.1518658382728207
0.25,0.002711935924274397,0.000981335698326714,0.009183008943892738,0.001800263625929528,0.03224312226232413,0.011698981977412395,0.10395018807675273,0.020935214690698725,0.2530093543987078,0.09230563665470759,0.7339329939126596,0.15696204128423702
0.26,0.0030471757453684597,0.0011029995240153623,0.01025950553373896,0.0020175476485086636,0.0348206325257486,0.012639649319859838,0.1113785919310673,0.022529928564517895,0.2624836873863967,0.09582532895777049,0.7516103620946569,0.16196529563826093
0.27,0.003408663482514053,0.001234245756600309,0.011411156325311023,0.0022510274314396367,0.037492614935208654,0.013615438156776549,0.1189796615251965,0.02417421291866851,0.2719036979210635,0.09932990132345693,0.7684675922418491,0.16687624455365446
0.28,0.0037973411324804074,0.0013754248516068687,0.012639647114141965,0.002501194074974143,0.04025852369563128,0.01462619626203565,0.12674523898978038,0.02586714791485809,0.2812688718941524,0.1028191484011449,0.7845133865518599,0.1716955312491795
0.29,0.004214145208380591,0.001526885732031554,0.013946582552181097,0.0027685295131418914,0.043117807870857935,0.015671769356004048,0.1346672534774352,0.02760782014698175,0.29057869519710766,0.10629286484021253,0.7997564472223146,0.17642379894359816
0.3,0.004660006688260664,0.001688975767807017,0.015333487018013776,0.0030535065780724806,0.04606991138364446,0.016752001105542424,0.14273772116275352,0.029395322641122233,0.29983265372137347,0.10975084529003779,0.8142054764508369,0.18106169085567236
0.31,0.0051358509636888145,0.0018620407552669854,0.016801805487081167,0.0033565890643172734,0.04911427301566125,0.01786673312400526,0.15094874524230426,0.031228754855549924,0.30903023335839397,0.11319288439999874,0.8278691764350508,0.18560985020416398
0.32,0.005642597788344506,0.002046424896611199,0.018352904401900013,0.0036782317931712766,0.05225032640749303,0.019015804971240786,0.1592925159346323,0.03310722268072279,0.3181709199996135,0.11661877681947344,0.8407562493725812,0.19006892020783508
0.33,0.0061811612266076225,0.002242470779370351,0.019988072542282374,0.004018880676995012,0.05547750005863901,0.02019905415359103,0.167761310480259,0.035029838439286434,0.32725419953647616,0.12002831719783996,0.8528753974610519,0.1944395440854476
0.34,0.006752449602147612,0.0024505193558710227,0.021708521895555416,0.004378972783536399,0.05879521732751285,0.02141631612389182,0.1763474931416819,0.036995720886074085,0.33627955786042624,0.1234213001844763,0.8642353228980877,0.19872236505576352
0.35000000000000003,0.007357365446512632,0.002670909922700623,0.023515388526781145,0.004758936400252624,0.06220289643144265,0.022667424281472722,0.18504351520337478,0.039003995208106594,0.3452464808629078,0.12679752042876052,0.8748447278813125,0.2029180263375448
0.36,0.007996805447718693,0.0029039801001723236,0.025409733448976204,0.005159191098632021,0.06569995044667093,0.02395220997215712,0.1938419149717876,0.041053793024592417,0.3541544544353653,0.13015677258007063,0.8847123146083505,0.20702717114955344
0.37,0.008671660398838802,0.0031500658117900016,0.02739254349333161,0.005580147798515949,0.06928578730835469,0.02527050248826215,0.20273531777534662,0.04314425238692762,0.3630029644692427,0.13349885128778477,0.8938467852768263,0.21105044271055134
0.38,0.00938281514659211,0.0034095012637131734,0.029464732179432525,0.006022208832420665,0.07295980981056534,0.02662212906859875,0.2117164359644543,0.04527451777869594,0.3717914968559843,0.13682355120128087,0.902256842084364,0.21498848423930056
0.39,0.01013114853993305,0.003682618924221932,0.03162714058547802,0.006485768009859196,0.07672141560628873,0.028006914898471638,0.22077806891148946,0.04744374011566869,0.3805195374870344,0.14013066696993703,0.909951187228588,0.218841938954563
0.4,0.010917533378640494,0.003969749503181889,0.033880538218500816,0.006971210681663228,0.0805699972074252,0.029424683109679297,0.22991310301080714,0.0496510767458048,0.3891865722538371,0.14341999324313134,0.9169385229071226,0.2226114500751007
0.41000000000000003,0.011742836361906879,0.004271221931509108,0.03622562388458709,0.00747891380430497,0.08450494198478947,0.030875254780513985,0.2391145116787384,0.051895691449250825,0.39779208704783653,0.14669132467024176,0.9232275513175918,0.2262976608196755
0.42,0.012607918036927375,0.004587363340635047,0.03866302655909622,0.00800924600421904,0.08852563216811074,0.03235844893576177,0.24837535535359082,0.05417675443834097,0.406335567760477,0.14994445590064637,0.9288269746576199,0.22990121440704947
0.43,0.013513632747488997,0.004918499041971489,0.04119330625688049,0.008562567642124324,0.09263144484603265,0.03387408254670249,0.25768878149564817,0.056493442357597026,0.4148165002832029,0.15317918158372323,0.9337454951248321,0.23342275405598462
0.44,0.014460828582559787,0.0052649525063754865,0.04381695490250496,0.009139230877345878,0.09682175196611323,0.03542197053110974,0.26704802458717014,0.05884493828372841,0.42323437050745805,0.15639529636885036,0.9379918149168514,0.2368629229852428
0.45,0.015450347324877933,0.005627045343614297,0.04653439720046712,0.00973957973213678,0.10109592033482506,0.037001925753250925,0.2764464061323933,0.06123043172563218,0.431588664324687,0.1595925949054058,0.9415746362313029,0.24022236441358613
0.46,0.016483024399540917,0.006005097281830324,0.04934599150541677,0.010363950156000026,0.10545331161755506,0.03861375902388722,0.2858773346575298,0.06364911862439297,0.4398788676263339,0.16277087184276767,0.9445026612658105,0.24350172155977645
0.47000000000000003,0.017559688822594666,0.006399426147006044,0.052252030692375634,0.011012670090010385,0.1098932823386046,0.040257279100273574,0.2953343057107684,0.06610020135328307,0.4481044663038428,0.1659299218303139,0.9467845922179988,0.2467016376425758
0.48,0.018681163149622697,0.0068103478424289595,0.05525274302695726,0.0116860595311363,0.1144151838811896,0.04193229268615871,0.30481090186227416,0.06858288871776239,0.45626494624865793,0.16906953951742262,0.9484291312854918,0.2498227558807461
0.49,0.019848263424335245,0.007238176328156524,0.05834829303558671,0.012384430596561736,0.1190183624874403,0.04363860443178516,0.3143007927041881,0.07109639595547845,0.4643597933522236,0.17218951955347178,0.949444980665914,0.2528657194930493
0.5,0.02106179912715843,0.007683223600481086,0.06153878237572031,0.013108087588008082,0.12370215925840139,0.04537601693388921,0.32379773485062757,0.07363994473626635,0.472388493505984,0.17528965658783957,0.9498408425568898,0.25583117169824754
0.51,0.0223225731238234,0.008145799671394834,0.06482425070606554,0.013857327056056024,0.12846591015403208,0.04714433073570093,0.3332955719376864,0.07621276316214892,0.4803505326013834,0.17836974526990396,0.9496254191560429,0.2587197557151026
0.52,0.023631381613955452,0.008626212548054714,0.06820467655680058,0.014632437864467393,0.13330894599320603,0.04894334432694421,0.34278823462343455,0.07881408576733649,0.4882453965298658,0.18142958024904293,0.9488074126609984,0.2615321147623765
0.53,0.02498901407966319,0.009124768212247383,0.07167997819979424,0.015433701254507074,0.1382305924537112,0.05077285414383664,0.3522697405879179,0.08144315351822706,0.4960725711828756,0.1844689561746346,0.9473955252693798,0.2642688920588312
0.54,0.026396253234127684,0.009641770599854148,0.0752500145188257,0.016261390909264872,0.14323017007225008,0.052632654569089665,0.36173419453315897,0.08409921381340627,0.5038315424518569,0.187487667696057,0.9453984591788116,0.2669307308232287
0.55,0.027853874970191598,0.010177521580315898,0.07891458587980417,0.017115773017977388,0.14830699424443972,0.05452253793190848,0.3711757881831563,0.0867815204836473,0.5115217962282539,0.1904855094626881,0.9428249165869185,0.26951827427433095
0.56,0.02936264830894832,0.010732320936098036,0.08267343500098881,0.017997106340349876,0.15346037522481137,0.056442294507992055,0.38058880028388503,0.0894893337919111,0.519142818403511,0.1934622761239061,0.9396835996913244,0.27203216563089994
0.5700000000000001,0.030923335348331152,0.011306466342155434,0.08652624782320839,0.01890564227087816,0.15868961812681096,0.05839171251953315,0.38996759660329594,0.09222192043334607,0.526694094869072,0.19641776232908892,0.9359832106896537,0.27447304811169765
0.58,0.032536691211702405,0.01190025334539735,0.09047265438008101,0.01984162490317047,0.1639940229227987,0.06037057813521832,0.3993066299313166,0.09497855353528836,0.5341751115163818,0.1993517627276147,0.9317324517795309,0.27684156493548606
0.59,0.03420346399644257,0.01251397534415238,0.094512229668234,0.020805291094269346,0.16937288444404927,0.06237867547022786,0.4086004400798506,0.09775851265726165,0.5415853542368838,0.20226407196886137,0.92694002515858,0.2791383593210271
0.6,0.035924394722539464,0.013147923567633401,0.09864449451752355,0.021796870528973493,0.17482549238075182,0.06441578658623587,0.41784365388277755,0.10056108379097728,0.5489243089220228,0.20515448470220704,0.9216146330244254,0.2813640744870827
0.61,0.03770021728117735,0.013802387055402487,0.10286891646125458,0.02281658578415967,0.18035113128200997,0.06648169149141026,0.4270309851959537,0.10338555936033422,0.5561914614632427,0.20802279557702977,0.9157649775746907,0.2835193536524149
0.62,0.039531658383326146,0.014477652636835868,0.10718491060640045,0.023864652393104584,0.18594908055584178,0.06857616814041267,0.4361572348972115,0.10623123822141904,0.5633862977519879,0.21086879924270757,0.9093997610070014,0.2856048400357856
0.63,0.04141943750833043,0.015174004910588847,0.11159184050382262,0.024941278909806696,0.19161861446917958,0.0706989924343985,0.44521729088635925,0.10909742566250591,0.5705083036797023,0.21369229034861845,0.9025276855189811,0.2876211768559569
0.64,0.04336426685249879,0.015891726224060775,0.11608901901849074,0.02604666697330822,0.1973590021478705,0.07284993822101705,0.45420612808518207,0.11198343340405671,0.5775569651378305,0.21649306354414055,0.8951574533082542,0.28956900733169066
0.65,0.0453668512776928,0.016631096652859945,0.12067570919970198,0.027181011372016863,0.20316950757667576,0.07502877729441129,0.46311880843744085,0.11488857959872084,0.5845317680178167,0.2192709134786519,0.8872977665724455,0.29144897468174896
0.66,0.04742788825991619,0.017392393980268546,0.12535112515130106,0.028344500108027786,0.20904938959927116,0.07723527939521799,0.4719504809088727,0.1178121888313353,0.5914321982111046,0.22202563480153048,0.8789573275091782,0.2932617221248936
0.67,0.04954806783790406,0.01817589367670762,0.13011443290189997,0.02953731446144547,0.214997901918247,0.07946921221056771,0.4806963814871916,0.12075359211892486,0.5982577416091389,0.22475702216215432,0.8701448383160773,0.2950078928798866
0.68,0.05172807256171197,0.01898186887920196,0.1349647512750977,0.030759629054705556,0.22101429309510795,0.08173034137408482,0.489351833182087,0.12371212691070174,0.6050078841033637,0.22746487020990155,0.8608690011907667,0.29668813016549006
0.6900000000000001,0.05396857744130512,0.0198105903708451,0.13990115275970005,0.032011611916896776,0.22709780655027303,0.08401843046588742,0.4979122460252249,0.1266871370880659,0.611682111585223,0.23014897359415015,0.8511385183308713,0.2983030772004658
0.7000000000000001,0.056270249895147464,0.020662326560264205,0.1449226643799394,0.033293424548082776,0.23324768056307602,0.08633324101258744,0.5063731170702479,0.12967797296460487,0.6182799099461613,0.2328091269642782,0.8409620919340148,0.29985337720357585
0.71,0.05863374969879083,0.021537343461085025,0.1500282685656943,0.03460522198362402,0.2394631482717647,0.08867453248729051,0.5147300303927742,0.13268399128609376,0.6248007650776227,0.23544512496966377,0.8303484241978221,0.30133967339358225
0.72,0.06105972893346415,0.022435904671396858,0.15521690402270943,0.03594715285849967,0.2457434376735017,0.09104206230959616,0.5229786570903987,0.13570455523049538,0.6312441628710515,0.23805676225968486,0.819306217319917,0.30276260898924695
0.73,0.06354883193466253,0.02335827135321744,0.1604874666028154,0.037319359471629454,0.2520877716243638,0.0934355858455976,0.5311147552826923,0.1387390344079601,0.6376095892178917,0.24064383348371948,0.8078441734979238,0.3041228272093317
0.74,0.06610169524073638,0.02430470221195792,0.16583881017414823,0.03872197785019552,0.2584953678393424,0.09585485640788186,0.5391341701112022,0.14178680486082595,0.6438965300095876,0.24320613329114577,0.7959709949294664,0.30542097127259876
0.75,0.06871894754148067,0.02527545347588779,0.17126974749136945,0.04015513781396437,0.26496543889234325,0.09829962525552975,0.5470328337394521,0.14484724906361857,0.6501044711375834,0.24574345633134165,0.7836953838121701,0.30665768439780994
0.76,0.07140120962672396,0.02627077887559981,0.17677905106588565,0.04161896303960867,0.2714971922161865,0.10076964159411586,0.5548067653529416,0.14791975592305118,0.6562328984933233,0.2482555972536853,0.7710260423436589,0.30783360980372726
0.77,0.07414909433491756,0.027290929623474965,0.18236545403606824,0.04311357112502918,0.27808983010260696,0.10326465257570855,0.5624520711591467,0.15100372077802465,0.6622812979682515,0.2507423507075547,0.7579716727215564,0.30894939070911265
0.78,0.07696320650172475,0.028336154393147378,0.18802765103747338,0.04463907365367658,0.28474254970225366,0.10578440329886994,0.5699649443875194,0.1540985453996275,0.6682491554538124,0.2532035113423278,0.7445409771434873,0.3100056703327281
0.79,0.07984414290860983,0.02940669929896928,0.19376429907306153,0.0461955762588734,0.2914545430246902,0.10832863680865605,0.5773416652894887,0.1572036379911359,0.6741359568414499,0.2556388738073828,0.7307426578070759,0.3110030918933356
0.8,0.08279249223142737,0.03050280787547592,0.1995740183834174,0.04778317868813585,0.29822499693839444,0.1108970940966165,0.5845786011384586,0.16031841318801343,0.6799411880226085,0.25804823275209776,0.7165854169099466,0.3119422986096972
0.81,0.08580883498901118,0.031624721056850505,0.20545539331696955,0.049401974867495715,0.3050530931707589,0.1134895141007948,0.5916722062298106,0.16344229205791155,0.685664334888732,0.2604313828258505,0.7020779566497237,0.3128239337005746
0.8200000000000001,0.08889374349176365,0.032772677156389166,0.2114069732002103,0.051052052965822256,0.31193800830809043,0.11610563370572823,0.5986190218809017,0.1665747021006692,0.6913048833312652,0.2627881186780193,0.6872289792240313,0.31364864038473006
0.8300000000000001,0.09204778179024484,0.03394691184596586,0.21742727320791533,0.052733495459144034,0.31887891379561034,0.11874518774244781,0.6054156764310651,0.16971507724831292,0.6968623192416518,0.26511823495798215,0.6720471868304934,0.31441706188092544
0.84,0.09527150562376152,0.03514765813549733,0.22351477523336374,0.054446379194970834,0.32587497593745446,0.12140790898847843,0.6120588852416107,0.17286285786505703,0.7023361285113361,0.26742152631511695,0.6565412816667349,0.31512984140792266
0.85,0.09856546236895641,0.03637514635240803,0.2296679287585574,0.0561907754566155,0.33292535589667294,0.12409352816783867,0.6185454506958243,0.17601749074730327,0.7077257970317625,0.26969778739880196,0.6407199659303802,0.31578762218448375
0.86,0.10193019098839734,0.037629604121095075,0.2358851517244409,0.05796675002751585,0.3400292096952303,0.1268017739510409,0.6248722621989683,0.17917842912364113,0.7130308106943752,0.2719468128584151,0.6245919418190525,0.3163910474293707
0.87,0.10536622197916634,0.03891125634239319,0.2421648314011216,0.059774363255556545,0.3471856882140059,0.12953237295509135,0.6310362961782812,0.1823451326548477,0.7182506553906185,0.2741683973433345,0.6081659115303775,0.3169407603613455
0.88,0.10887407732144874,0.04022032517303957,0.24850532525808874,0.061613670117390905,0.354393937192793,0.1322850497434899,0.637034616082977,0.18551706743388757,0.7233848170119359,0.27636233550293793,0.5914505772619785,0.31743740419916994
0.89,0.11245427042712247,0.041557030005138954,0.2549049618344339,0.06348472028276288,0.36165309723029965,0.1350595268262303,0.6428643723842469,0.18869370598591312,0.7284327814497725,0.2785284219866038,0.5744546412114799,0.3178816221616062
0.9,0.11610730608834711,0.04292158744562845,0.2613620416090704,0.0653875581788289,0.3689623037841484,0.1378555246598001,0.6485228025752583,0.19187452726826426,0.733394034595572,0.28066645144371,0.5571868055765062,0.3182740574674161
0.91,0.11983368042615297,0.04431421129574249,0.26787483787095295,0.06732222305447967,0.3763206871708758,0.14067276164718057,0.6540072311711542,0.19505901667046854,0.7382680623407788,0.2827762185236345,0.5396557725546822,0.31861535333536173
0.92,0.12363388083903029,0.045735112530477844,0.2744415975892977,0.06928874904466215,0.38372737256593337,0.14351095413784679,0.6593150697090544,0.19824666601424118,0.7430543505768371,0.2848575178757555,0.521870244343631,0.318906152984205
0.93,0.12750838595151853,0.04718449927805845,0.28106054228380195,0.07128716523470138,0.3911814800036869,0.1463698164277676,0.6644438167480549,0.2014369735534849,0.747752385195191,0.28691014414945093,0.5038389231409776,0.3191470996327079
0.9400000000000001,0.1314576655627952,0.04866257679940042,0.2877298688948636,0.07331749572462236,0.3986821243774164,0.14924906075940567,0.6693910578692275,0.20462944397429006,0.7523616520872848,0.28893389199409886,0.48557051114434646,0.3193388364996323
0.9500000000000001,0.13548218059526534,0.050169547467576986,0.29444775065380147,0.07537975969347196,0.4062284154393166,0.15214839732171737,0.6741544656756207,0.2078235883949348,0.7568816371445627,0.2909285560590773,0.4670737105513616,0.31948200680374034
0.96,0.13958238304315038,0.05170561074728336,0.30121233795307445,0.07747397146364074,0.4138194578004965,0.15506753425015293,0.6787317997922591,0.21101892436588474,0.7613118262584688,0.2928939309937644,0.44835722355964736,0.31957725376379387
0.97,0.1437587159210775,0.05327096317430177,0.3080217592165017,0.07960014056518483,0.42145435093097955,0.15800617762665625,0.6831209068661432,0.214214975869793,0.7656517053204476,0.29482981144753817,0.4294297523668277,0.31962522059855497
0.98,0.14801161321266867,0.05486579833496634,0.31487412176948226,0.08175827180014791,0.42913218915970386,0.16096403147966523,0.6873197205662507,0.21741127332150073,0.7699007602219429,0.2967359920697765,0.4102999991705274,0.3196265505267854
0.99,0.15234149981912978,0.05649030684562803,0.32176751270921483,0.0839483653068829,0.43685206167452156,0.16394079778411128,0.6913262615835343,0.22060735356803618,0.774058476854399,0.29861226750985764,0.39097666616837046,0.3195818867672473
1.0,0.15674879150783988,0.0581446763321196,0.3286999997749175,0.08617041662437408,0.4446130525221998,0.16693617646141976,0.6951386376309239,0.2238027598886156,0.7781243411092605,0.30045843241715964,0.37146845555798114,0.3194918725387027
1.01,0.16123389486094017,0.05982909140922053,0.3356696322180476,0.08842441675655871,0.4524142406084197,0.16994986537950985,0.6987550434433252,0.22699704199464277,0.7820978388779712,0.3022742814410603,0.35178406953698405,0.31935715105991336
1.02,0.1657972072239233,0.06154373366012196,0.3426744416725212,0.09071035223664906,0.4602546996977769,0.17298156035279424,0.7021737607776204,0.23018975602970898,0.7859784560519756,0.3040596092309379,0.3319322103030032,0.3191783655496415
1.03,0.1704391166542224,0.06328878161589159,0.3497124430249334,0.09302820519145427,0.4681334984137816,0.17603095514217976,0.7053931584126674,0.2333804645695932,0.7897656785227176,0.3058142104361704,0.3119215800536633,0.3189561592266489
1.04,0.1751600018698004,0.06506441073493871,0.3567816352847774,0.09537795340570218,0.4760497002388585,0.17909774145506677,0.7084116921493011,0.23656873662226208,0.7934589921816416,0.3075378797061359,0.2917608809865877,0.3186911753096975
1.05,0.17996023219773888,0.06687079338247909,0.36388000245466495,0.09775957038636128,0.4840023635143466,0.18218160894534954,0.7112279048103323,0.23975414762786984,0.7970578829201918,0.3092304116902123,0.27145881529940136,0.3183840570175494
1.06,0.18484016752282748,0.06870809880999984,0.37100551440054563,0.1001730254269625,0.49199054144049925,0.185282245213416,0.7138404262405476,0.2429362794587583,0.8005618366298123,0.3108916010377778,0.2510240851897285,0.3180354475689665
1.07,0.18980015823615287,0.07057649313472446,0.37815612772192664,0.10261828367192113,0.5000132820764845,0.18839933580614798,0.7162479733067106,0.24611472041945692,0.8039703392019474,0.3125212423982104,0.23046539285519352,0.31764599018271084
1.08,0.19484054518368815,0.07247613931907777,0.38532978662209305,0.10509530618085872,0.5080696283403847,0.191532564216921,0.7184493498975606,0.24928906524668282,0.8072828765280413,0.31411913042088807,0.20979144049342058,0.31721632807754435
1.09,0.19996165961488155,0.07440719715015076,0.39252442377832675,0.10760404999292489,0.5161586180091967,0.19468161188560446,0.7204434469238135,0.25245891510934065,0.8104989344995381,0.31568505975518896,0.18901093030203409,0.316747104472229
1.1,0.20516382313124604,0.0763698232191656,0.39973796121212724,0.11014446819111927,0.5242792837188317,0.1978461581985615,0.7222292423181614,0.2556238776085228,0.8136179990078825,0.3172188250504911,0.168132564478658,0.31623896258552675
1.11,0.21044734763494824,0.07836417090094058,0.4069683111594301,0.11271650996661334,0.5324306529641154,0.2010258804886489,0.7238058010352721,0.25878356677750913,0.8166395559445179,0.3187202209561724,0.14716504522091667,0.31569254563619953
1.12,0.21581253527739755,0.08039039033335502,0.41421337694082816,0.11532012068307233,0.540611748098788,0.20422045403521746,0.7251722750517906,0.2619376030817673,0.819563091200889,0.3201890421216111,0.12611707472643485,0.3151084968430094
1.1300000000000001,0.22125967840783534,0.08244862839681419,0.4214710538317903,0.11795524194097709,0.5488215863355038,0.2074295520641116,0.7263279033663372,0.2650856134189523,0.82238809066844,0.3216250831961851,0.10499735519283626,0.31448745942471823
1.1400000000000001,0.2267890595219242,0.0845390286937143,0.4287392299328812,0.12062181164194591,0.5570591797458321,0.21065284574766954,0.727272011999509,0.2682272311189071,0.8251140402386152,0.32302813882927256,0.0838145888177454,0.3138300766000881
1.1500000000000001,0.23240095121033694,0.0866617315279074,0.436015787039982,0.12331976405305656,0.5653235352602564,0.21389000420472332,0.7280040139938793,0.2713620959436621,0.8277404258028584,0.32439800367025146,0.06257747779878675,0.3131369915878809
1.16,0.2380956161073456,0.08881687388416634,0.4432986015145089,0.12604902987116787,0.5736136546681744,0.21714069450059884,0.7285234094139973,0.27448985408743537,0.830266733252614,0.3257344723684998,0.04129472433358383,0.3124088476068585
1.17,0.243873306839411,0.0910045894076497,0.4505855451536337,0.12880953628724198,0.5819285346178984,0.22040458164711546,0.7288297853463885,0.2776101581766324,0.8326924484793263,0.32703733957339565,0.019975030619762357,0.31164628787578313
1.18,0.24973426597377157,0.09322500838336668,0.45787448606050357,0.1316012070506659,0.5902671666166555,0.22368132860258683,0.7289228158995558,0.28072266726984674,0.8350170573744397,0.3283063999343171,-0.0013729011450543949,0.3108499556134166
1.19,0.25567872596703256,0.09547825771564214,0.46516328951445995,0.13442396253357358,0.5986285370305868,0.22697059627181984,0.7288022622039765,0.28382704685785903,0.8372400458293981,0.3295414481006422,-0.022740368763242813,0.3100204940385209
1.2,0.2617069091137553,0.09776446090758145,0.4724498188412596,0.13727771979516762,0.6070116270847478,0.2302720435061156,0.7284679724121053,0.28692296886363794,0.8393608997356456,0.3307422787217489,-0.044118670037176844,0.309158546369858
1.21,0.26781902749504616,0.10008373804053548,0.47973193628329336,0.14016239264604138,0.6154154128631087,0.2335853271032687,0.7279198816983725,0.29001011164233953,0.8413791049846268,0.3319086864470153,-0.06549910276923365,0.3082647558261898
1.22,0.27401528292714566,0.10243620575356549,0.4870075038698064,0.14307789171250063,0.6238388653085543,0.23691010180756772,0.7271580122591854,0.2930881599813076,0.8432941474677856,0.3330404659258196,-0.08687296476178796,0.3073397656262785
1.23,0.28029586691001807,0.10482197722290809,0.49427438428711784,0.1460241245008855,0.6322809502228832,0.24024602030979483,0.7261824733129273,0.29615680510007353,0.8451055130765665,0.3341374118075396,-0.10823155381721639,0.3063842189888858
1.24,0.2866609605759399,0.10724116214144025,0.5015304417488402,0.14900099546189247,0.6407406282668091,0.24359273324722613,0.724993461099957,0.2992157446503562,0.8468126877024131,0.33519931874155334,-0.12956616773789364,0.30539875913277376
1.25,0.29311073463808957,0.10969386669814404,0.5087735428661,0.15200840605489602,0.64921685495996,0.24694988920363148,0.7235912588826106,0.3022646827160625,0.8484151572367705,0.33622598137723914,-0.15086810432619635,0.3043840292767045
1.26,0.2996453493391362,0.11218019355757183,0.5160015575177564,0.15504625481227075,0.6577085806808778,0.2503171347092744,0.7219762369451999,0.30530332981328634,0.8499124075710822,0.3372171943639748,-0.17212866138450011,0.30334067263943965
1.27,0.30626495439982915,0.11470024183931103,0.5232123597206223,0.15811443740371306,0.6662147506670196,0.2536941142409124,0.7201488525940127,0.30833140289030986,0.8513039245967927,0.3381727523511384,-0.1933391367151801,0.3022693324397415
1.28,0.31296968896758653,0.11725410709744907,0.5304038284996826,0.16121284670056316,0.6747343050147565,0.2570804702217966,0.7181096501573137,0.3113486253276023,0.8525891942053463,0.33909244998810817,-0.2144908281206125,0.30117065189637193
1.29,0.3197596815650851,0.11984188130003842,0.537573848758315,0.16434137284012684,0.6832661786793741,0.2604758430216718,0.7158592609853432,0.31435472693782085,0.8537677022881868,0.3399760819242618,-0.23557503340317276,0.3000452742280928
1.3,0.32663505003884885,0.12246365280856143,0.54472031214851,0.16749990328999745,0.6918093014750726,0.263879870956777,0.7133984034503182,0.31734944396581033,0.8548389347367588,0.3408234428089776,-0.25658305036523654,0.29889384265366625
1.31,0.33359590150783847,0.12511950635739535,0.5518411179410896,0.17068832291237773,0.7003625980749666,0.2672921902898446,0.7107278829464323,0.32033251908860294,0.8558023774425063,0.34163432729163357,-0.27750617680917977,0.29771700039185417
1.32,0.3406423323120402,0.12780952303327714,0.5589341738959274,0.1739065140284016,0.7089249880110848,0.27071243523010075,0.7078485918898539,0.32330370141541864,0.8566575162968735,0.3424085300216078,-0.29833571053737795,0.2965153906614185
1.33,0.3477744279610553,0.13053378025476856,0.565997397132169,0.17715435648245617,0.717495385674371,0.2741402379332657,0.7047615097187292,0.3262627464876651,0.8574038371913051,0.34314584564827827,-0.31906294935220736,0.2952896566811213
1.34,0.35499226308268894,0.13329235175172105,0.5730287149984514,0.18043172770650362,0.7260727003146827,0.27757522850155325,0.7014677028931797,0.32920941627893746,0.8580408260172445,0.343846068821023,-0.33967919105604305,0.29404044166972443
1.35,0.3622959013715395,0.13608530754474057,0.5800260659431224,0.18373850278440296,0.7346558360407923,0.281017034983671,0.6979683248953039,0.33214347919501847,0.8585679686661365,0.34450899418922004,-0.3601757334512612,0.2927683888459899
1.36,0.36968539553758767,0.1389127139246527,0.5869874003844608,0.1870745545162319,0.7432436918203867,0.2844652833748204,0.6942646162291753,0.3350647100738786,0.8589847510294253,0.3451344164022475,-0.38054387434023684,0.2914741414286798
1.37,0.37716078725478547,0.14177463343196758,0.5939106815808962,0.19043975348260894,0.7518351614800671,0.28791959761669667,0.6903579044208452,0.33797289018567606,0.8592906589985547,0.3457221301094834,-0.4007749115253465,0.2901583426365558
1.3800000000000001,0.38472210710964555,0.14467112483634456,0.6007938865012282,0.19383396810901504,0.7604291337053489,0.29137959959748877,0.6862496040183401,0.34086780723275634,0.8594851784649693,0.34627192996030565,-0.42086014280896533,0.28882163568838015
1.3900000000000001,0.39236937454983045,0.14760224311605752,0.6076350066948467,0.19725706473011548,0.7690244920406621,0.29484490915187933,0.6819412165916631,0.3437492553496526,0.8595677953201128,0.3467836106040924,-0.44079086599346917,0.28746466380291474
1.4000000000000001,0.40010259783274127,0.15056803943745956,0.6144320491619516,0.20070890765408184,0.7776201148893517,0.298315144061045,0.6774343307327931,0.34661703510308617,0.85953799545543,0.3472569666902218,-0.4605583788812342,0.28608807019892146
1.41,0.4079217739741075,0.15356856113444808,0.6211830372237727,0.204189359226914,0.7862148755136762,0.3017899200526562,0.6727306220556861,0.3494709534919652,0.8593952647623648,0.34769179286807184,-0.48015397927463543,0.28469249809516245
1.42,0.4158268886965754,0.15660385168792956,0.6278860113927887,0.20769827989676162,0.794807642034809,0.30526885080087673,0.6678318531962738,0.352310823947386,0.8591390891323616,0.34808788378702044,-0.4995689649760494,0.28327859071039946
1.43,0.4238179163782979,0.15967395070528467,0.6345390302429477,0.21123552827824643,0.8033972774328384,0.3087515479263648,0.6627398738124639,0.3551364663326324,0.8587689544568644,0.3484450340964457,-0.5187946337878506,0.2818469912633947
1.44,0.4318948200015231,0.1627788938998331,0.641140171279887,0.2148009612167839,0.8119826395467662,0.3122376209962719,0.6574566205841408,0.3579477069431756,0.8582843466273176,0.34876303844572576,-0.5378222835124155,0.2803983429729099
1.45,0.44005755110118383,0.1659187130702985,0.6476875318111526,0.21839443385290513,0.8205625810745095,0.3157266775242435,0.6519841172131652,0.3607443785066749,0.8576847515351652,0.34904169148423864,-0.5566432119521202,0.27893328905770726
1.46,0.44830604971348664,0.1690934360802735,0.6541792298164186,0.22201579968657875,0.829135949572899,0.31921832297041874,0.6463244744233734,0.36352632018297665,0.8569696550718513,0.34928078786136224,-0.5752487169093398,0.2774524727365486
1.47,0.4566402443245011,0.1723030868376845,0.6606134048177077,0.22566491064153277,0.8377015874576809,0.3227121607414308,0.6404798899605789,0.36629337756411523,0.8561385431288205,0.3494801222264748,-0.5936300961864499,0.2759565372281959
1.48,0.46506005181874843,0.17554768527425682,0.6669882187496105,0.22934161712957657,0.8462583320035146,0.32620779219040613,0.6344526485925702,0.36904540267431246,0.855190901597517,0.34963948922895427,-0.6117786475858266,0.27444612575141125
1.49,0.4735653774277914,0.17882724732497945,0.6733018568295052,0.23304576811492259,0.8548050153439751,0.3297048166169656,0.6282451221091134,0.3717822539699779,0.8541262163693846,0.3497586835181786,-0.6296856689098459,0.27292188152495644
1.5,0.48215611467882286,0.18214178490756996,0.6795525284277779,0.2367772111785083,0.8633404644715511,0.33320283126722344,0.6218597693219499,0.3745037963397086,0.8529439733358677,0.34983749974352596,-0.6473424579608825,0.2713844477675934
1.51,0.4908321453432553,0.18549130590193974,0.6857384679380416,0.24053579258231822,0.8718635012376459,0.3367014313337878,0.6152991360647976,0.37720990110428926,0.8516436583884107,0.34987573255437443,-0.6647403125413143,0.2698344676980843
1.52,0.4995933393853098,0.1888758141296586,0.6918579356473571,0.24432135733370547,0.8803729423525777,0.34020020995576056,0.608565855193351,0.3799004460166923,0.8502247574184577,0.3498731766001019,-0.6818705304535135,0.2682725845351911
1.53,0.5084395549106051,0.19229530933341982,0.6979092186064509,0.24813374924971404,0.8888675993855782,0.3436987582187374,0.6016626465852802,0.3825753152620777,0.8486867563174529,0.34982962653008665,-0.6987244094998583,0.2666994414976758
1.54,0.5173706381147467,0.19574978715650515,0.703890631499937,0.2519728110214001,0.8973462787647947,0.3471966651548078,0.5945923171402321,0.385234399457793,0.84702914097684,0.3497448769937064,-0.7152932474827247,0.2651156818043
1.55,0.5263864232319164,0.19923923912224972,0.7098005175165353,0.25583838427815475,0.9058077817772878,0.35069351774255486,0.5873577607798294,0.3878775956533734,0.8452513972880642,0.3496187226403395,-0.7315683422044865,0.2635219486738263
1.56,0.5354867324834612,0.20276365261350693,0.715637249219292,0.2597303096520249,0.9142509045690336,0.3541889009070558,0.5799619584476714,0.3905048073305417,0.843353011142569,0.34945095811936383,-0.747540991467521,0.2619188853250161
1.57,0.5446713760264822,0.2063230108521134,0.7213992294157989,0.2636484268420359,0.9226744381449217,0.3576823975198814,0.5724079781093334,0.39311594440320846,0.8413334684317989,0.3492413780801574,-0.7632024930742041,0.26030713497663155
1.58,0.5539401519024241,0.209917292878354,0.7270848920284141,0.26759257467851305,0.9310771683687566,0.3611735883990961,0.5646989747523671,0.3957109232174716,0.8391922550471976,0.34898977717209834,-0.7785441448269099,0.2586873408474347
1.59,0.5632928459856641,0.21354647353042663,0.7326927029644801,0.27156259118740356,0.9394578759632577,0.36466205230925847,0.5568381903863006,0.39828966655161696,0.8369288568802105,0.34869595004456494,-0.7935572445280155,0.2570601461561876
1.6,0.5727292319321015,0.21721052342390734,0.7382211609865456,0.2755583136545985,0.9478153365100578,0.36814736596142045,0.5488289540426377,0.4008521036161178,0.8345427598222801,0.3483596913469347,-0.8082330899798962,0.2554261941216518
1.61,0.582249071127746,0.2209094089312151,0.7436687985825836,0.2795795786902546,0.956148320449705,0.37162910401312804,0.5406746817748589,0.40339817005363493,0.8320334497648523,0.3479807957285859,-0.8225629789849274,0.25378612796258976
1.62,0.5918521126373079,0.22464309216107672,0.7490341828362115,0.28362622229311607,0.9644555930816614,0.375106839068421,0.5323788766584208,0.40592780793901706,0.8294004125993699,0.3475590578388968,-0.8365382093454854,0.2521405908977633
1.6300000000000001,0.6015380931527861,0.22841153093799207,0.754315916296912,0.2876980799148366,0.9727359145643035,0.37858014167783277,0.5239451287907562,0.40844096577930017,0.8266431342172784,0.34709427232724527,-0.8501500788639453,0.25049022614593436
1.6400000000000001,0.6113067369420585,0.2322146787816987,0.7595126378502515,0.2917949865243012,0.9809880399149229,0.3820485803383907,0.5153771152912743,0.41093759851370826,0.8237611005100209,0.34658623384300935,-0.8633898853426833,0.24883567692586475
1.6500000000000001,0.6211577557974698,0.23605248488663697,0.7646230235881004,0.29591677667194793,0.9892107190097252,0.3855117214936157,0.5066786003013602,0.4134176675136526,0.820753797369042,0.3460347370355671,-0.8762489265840749,0.24717758645631657
1.6600000000000001,0.6310908489844219,0.2399248941014148,0.7696457876788527,0.30006328455409004,0.9974026965838296,0.3889691295335226,0.4978534349843759,0.4158811405827322,0.8176207106857861,0.34543957655429647,-0.8887185003904956,0.24551659795605202
1.67,0.6411057031899622,0.24383184690827292,0.7745796832376464,0.30423434407723765,1.0055627122312714,0.3924203667946201,0.48890555752565895,0.41832799195673376,0.8143613263516978,0.3448005470485758,-0.9007899045643213,0.2438533546438327
1.68,0.6512019924713728,0.24777327940254934,0.779423503196582,0.3084297889224197,1.013689500404999,0.39586499355991056,0.47983899313252354,0.4207582023036316,0.8109751302582202,0.34411744316778275,-0.9124544369079284,0.24218849973842071
1.69,0.6613793782047606,0.25174912327214494,0.7841760811749441,0.3126494526095058,1.021781790416876,0.3993025680588901,0.47065785403425975,0.42317175872358737,0.8074616082967982,0.3433900595612956,-0.9237033952236915,0.2405226764585781
1.7,0.6716375090336447,0.2557593057769876,0.7888362923494188,0.31689316856152805,1.0298383064376804,0.40273264646754875,0.4613663394821348,0.42556865474895095,0.8038202463588762,0.34261819087849243,-0.9345280773139867,0.23885652802306678
1.71,0.6819760208175473,0.2598037497284979,0.7934030543243153,0.3211607701690032,1.0378577674971035,0.40615478290837015,0.45196873574939045,0.42794889034425904,0.8000505303358973,0.34180163176875095,-0.9449197809811906,0.23719069765064857
1.72,0.692394536580582,0.26388237346905363,0.7978753280017861,0.32545209085425414,1.0458388874837528,0.40956852945033195,0.4424694161312467,0.4303124719062367,0.7961519461193073,0.3409401768814496,-0.9548698040276774,0.23552582856008578
1.73,0.7028926664600428,0.2679950908514548,0.8022521184520439,0.3297669641357319,1.0537803751451489,0.4129734361089052,0.432872840944898,0.4326594122637961,0.7921239796005497,0.3400336208659665,-0.9643694442558235,0.23386256397014016
1.74,0.7134700076549936,0.2721418112183885,0.8065324757835848,0.33410522369233764,1.0616809340877278,0.4163690508460552,0.4231835575295166,0.4349897306780374,0.787966116671068,0.3390817583716791,-0.973409999468005,0.2322015470995737
1.75,0.7241261443748571,0.27632243938189416,0.8107154960134055,0.3384667034277445,1.0695392627768394,0.4197549195702407,0.41340620024624997,0.43730345284224814,0.7836778432223077,0.3380843840479661,-0.9819827674665971,0.23054342116714846
1.76,0.7348606477880043,0.28053687560282814,0.8148003219372248,0.3428512375347194,1.077354054536748,0.4231305861364144,0.403545490478222,0.4396006108819034,0.779258645145712,0.337041292544205,-0.9900790460539755,0.2288888293916262
1.77,0.7456730759703433,0.28478501557032876,0.818786143999702,0.34725866055944493,1.0851239975506324,0.4264955923460226,0.39360623663053307,0.4418812433546662,0.7747080083327251,0.3359522785097741,-0.9976901330325164,0.22723841499176892
1.78,0.7565629738539082,0.2890667503812813,0.8226722011646577,0.35168880746584125,1.0928477748605858,0.42984947794700556,0.3835933341302598,0.4441453952503869,0.770025418674792,0.33481713659405166,-1.0048073262045951,0.22559282118633883
1.79,0.7675298731754499,0.29338196651978304,0.8264577817852932,0.356141513699888,1.1005240643676166,0.43319178063379726,0.3735117654264549,0.4463931179911037,0.7652103620633568,0.33363566144641543,-1.0114219233725876,0.22395269119409786
1.8,0.778573292425022,0.29773054583660796,0.8301422244744093,0.36061661525394606,1.108151538831646,0.4365220360473254,0.36336659999014725,0.448624469431042,0.7602623243898627,0.3324076477162434,-1.017525222338869,0.22231866823380766
1.81,0.7896927367945733,0.3021123655286716,0.8337249189746285,0.3651139487310796,1.1157288658715119,0.4398397777750116,0.3531629943143419,0.4508395138566155,0.7551807915457548,0.331132890052914,-1.0231085209058162,0.22069139552423048
1.82,0.8008876981265354,0.30652729811849655,0.8372053070286121,0.36963335140937775,1.1232547079649642,0.44314453735077114,0.34290619191402066,0.45303832198642496,0.7499652494224774,0.3298111831058048,-1.028163116875803,0.2190715162841283
1.83,0.8121576548624115,0.3109752114336768,0.8405828832492814,0.37417466130627686,1.130727722448669,0.44643584425501304,0.332601523326141,0.4552209709712588,0.7446151839114741,0.3284423215242942,-1.0326803080512075,0.21745967373226294
1.84,0.8235020719913662,0.31545596858634295,0.843857195990037,0.37873771724288163,1.1381465615182063,0.44971322591464025,0.32225440610963724,0.4573875443940935,0.7391300809041901,0.32702609995776016,-1.0366513922344034,0.21585651108739667
1.85,0.8349204009988145,0.31996942795262706,0.8470278482149792,0.3833223589082879,1.1455098722280699,0.45297620770304947,0.31187034484541915,0.4595381322700927,0.7335094262920683,0.3255623130555806,-1.040067667227767,0.21426267156829115
1.86,0.8464120798150112,0.32451544315212766,0.850094498369127,0.3879284269239039,1.1528162964916693,0.456224312940131,0.3014549311363735,0.4616728310466077,0.7277527059665531,0.3240507554671337,-1.042920430833675,0.2126787983937083
1.87,0.8579765327636394,0.3290938630273747,0.8530568612486377,0.3925557629077722,1.160064471081328,0.4594570628922692,0.29101384360736265,0.46379174360317765,0.7218594058190901,0.32249122184179746,-1.0452009808545013,0.2111055347824104
1.8800000000000001,0.8696131705104,0.33370453162329433,0.8559147088710279,0.39720420953889196,1.1672530276282829,0.4626739767723419,0.2805528479052256,0.46589497925152934,0.7158290117411226,0.32088350682895,-1.046900615092623,0.20954352395315934
1.8900000000000001,0.8813213900116011,0.3383472881666741,0.8586678713453921,0.4018736106215405,1.174380592622687,0.465874571739721,0.2700777966987778,0.46798265373557696,0.7096610096240941,0.3192274050779691,-1.048010631350416,0.20799340912471673
1.9000000000000001,0.8931005744627467,0.34302196704562754,0.8613162377426227,0.4065638111495949,1.1814457874136062,0.46905836290027214,0.25959462967881053,0.4700548892314223,0.7033548853594496,0.31752271123823295,-1.0485223274302553,0.20645583351584476
1.9100000000000001,0.9049500932471262,0.3477283977890595,0.86385975696563,0.4112746573708545,1.188447228209022,0.4722248633063545,0.24910937355809126,0.472111814347355,0.6969101248386331,0.31576921995911966,-1.0484270011345165,0.2049314403453057
1.92,0.916869301884403,0.35246640504613075,0.866298438619562,0.4160059968513625,1.1953835260758296,0.47537358395682117,0.23862814207136407,0.47415356412385207,0.6903262139530892,0.3139667258900072,-1.047715950265576,0.20342087283186103
1.93,0.9288575419792048,0.35723580856572323,0.868632353882024,0.4207576785397277,1.2022532869398395,0.4785040337970192,0.22815713597534915,0.4761802800335785,0.6836026385942613,0.3121150236802738,-1.0463804726258081,0.20192477419427315
1.94,0.9409141411697108,0.36203642317590456,0.8708616363732979,0.4255295528314464,1.2090551115857755,0.4816157197187892,0.21770264304874287,0.4781921099813863,0.6767388846535946,0.3102139079792972,-1.0444118660175912,0.20044378765130358
1.95,0.9530384130762433,0.3668680587633935,0.8729864830265632,0.43032147163322443,1.2157875956572766,0.4847081465604656,0.20727103809221759,0.4801892083043158,0.6697344380225327,0.3082631734364557,-1.0418014282432981,0.19897855642171497
1.96,0.9652296572498548,0.3717305202530245,0.8750071549581157,0.43513328842729915,1.2224493296568963,0.48778081710687676,0.19686878292842236,0.4821717357715944,0.6625887845925198,0.30626261470112714,-1.0385404571053054,0.1975297237242685
1.97,0.9774871591209179,0.3766236075872128,0.8769239783375872,0.4399648583357609,1.229038898946102,0.4908332320893445,0.18650242640198256,0.48413985958463757,0.6553014102550001,0.30421202642268974,-1.0346202504059903,0.19609793277772633
1.98,0.9898101899477145,0.38154711570541916,0.8787373452581659,0.44481603818487503,1.2355548837452761,0.4938648901856847,0.17617860437949906,0.4860937533770478,0.6478718009014189,0.30211120325052165,-1.0300321059477264,0.19468382680085133
1.99,1.0021980067650256,0.38650083452361517,0.8804477146068166,0.4496866865694043,1.2419958591337148,0.496875288020207,0.16590403974954981,0.48803359721461587,0.6402994424232182,0.29995993983400066,-1.0247673215328912,0.19328804901240415
2.0,1.014649852332718,0.3914845489137479,0.8820556129344982,0.4545766639169297,1.2483603950496298,0.4998639201637147,0.15568554242268884,0.4899595775953198,0.6325838207118444,0.297758030822505,-1.018817194963859,0.19191124263114773
2.0100000000000002,1.0271649550843376,0.39649803868320516,0.8835616353263865,0.4594858325521736,1.254647056290146,0.502830279133505,0.14553000933144555,0.4918718874493253,0.6247244216587409,0.29550527086541256,-1.0121730240430058,0.1905540508758437
2.02,1.039742529075694,0.4015410785542797,0.8849664462720916,0.4644140567613203,1.2608544025113035,0.5057738553933689,0.13544442443032723,0.49377072613898576,0.6167207311553514,0.2932014546121013,-1.0048261065727089,0.1892171169652537
2.0300000000000002,1.052381773933453,0.40661343814363493,0.8862707805358792,0.469361202856339,1.2669809882280565,0.5086941373535908,0.12543585869581564,0.49565629945884193,0.60857223509312,0.29084637671194935,-0.9967677403553423,0.18790108411813994
2.04,1.0650818748037238,0.4117148819417698,0.887475444026889,0.4743271392393052,1.273025362814274,0.5115906113709494,0.11551147012636975,0.49752881963562245,0.6002784193634918,0.28843983181433486,-0.9879892231932819,0.18660659555326448
2.05,1.0778420023006499,0.4168451692924832,0.8885813146693557,0.4793117364667226,1.2789860705027396,0.514462761748717,0.10567850374242493,0.49938850532824375,0.5918387698579104,0.2859816145686359,-0.9784818528889045,0.18533429448938918
2.06,1.090661312454996,0.42200405437233945,0.8895893432728281,0.48431486731384515,1.2848616503851504,0.5173100707366597,0.09594429158639184,0.5012355816278095,0.5832527724678205,0.2834715196242305,-0.9682369272445837,0.18408482414527666
2.07,1.1035389466627388,0.4271912861701325,0.8905005544023888,0.4893364068389981,1.2906506364121189,0.5201320185310371,0.08631625272265853,0.503070280057611,0.5745199130846658,0.2809093416304963,-0.9572457440626978,0.18285882773968765
2.08,1.116474031633656,0.43240660846635204,0.8913160472488743,0.4943762324479014,1.2963515573931714,0.522928083274603,0.07680189323758913,0.5048928385731274,0.5656396775998916,0.27829487523681223,-0.9454996011456201,0.18165694849138542
2.09,1.1294656793399145,0.4376497598126473,0.8920369964990947,0.4994342239579903,1.3019629369967491,0.5256977410566047,0.06740880623952283,0.5067035015620254,0.5566115519049404,0.27562791509255563,-0.9329897962957275,0.18047982961913106
2.1,1.1425129869646613,0.4429204735112926,0.8926646532060535,0.5045102636627378,1.3074832937502077,0.5284404659127835,0.058144671858776587,0.5085025198441594,0.5474350218912574,0.2729082558471046,-0.9197076273153967,0.17932811434168644
2.11,1.1556150368506102,0.44821847759465233,0.8932003456591665,0.5096042363959762,1.3129111410398164,0.531155729825374,0.049017257247642054,0.510290150671571,0.5381095734502855,0.2701356921498369,-0.9056443920070022,0.17820244587781375
2.12,1.1687708964486327,0.4535434948046453,0.8936454802544834,0.5147160295962193,1.3182449871107602,0.5338430027231053,0.040034416580388976,0.5120666577284899,0.5286346924734716,0.2673100186501315,-0.8907913881729191,0.1771034674462756
2.13,1.1819796182663473,0.45889524257221015,0.8940015423649057,0.5198455333709842,1.323483335067138,0.5365017524811996,0.03120409105326183,0.5138323111313334,0.519009864852259,0.26443102999736606,-0.8751399136155237,0.17603182226583358
2.14,1.1952402398167077,0.4642734329967707,0.8942700972104073,0.5249926405611128,1.328624682871962,0.5391314449213735,0.022534308884481935,0.515587387428706,0.5092345764780897,0.2614985208409179,-0.8586812661371934,0.17498815355524902
2.15,1.2085517835665918,0.46967777282569984,0.8944527907282547,0.5301572468050944,1.3336675233471609,0.5417315438118369,0.014033185314247021,0.5173321696014004,0.49930831324241043,0.2585122858301661,-0.8414067435403013,0.17397310453328477
2.16,1.2219132568853923,0.4751079634337855,0.8945513504432254,0.5353392506033869,1.3386103441735764,0.5443015108672936,0.0057089226047302155,0.5190669470623963,0.4892305610366626,0.2554721196144875,-0.8233076436272249,0.17298731841870174
2.17,1.2353236519936042,0.48056370080269434,0.8945675863378297,0.540538553382739,1.3434516278909652,0.5468408057489413,-0.002430189959918061,0.5207920156568615,0.47900080575229476,0.2523778168432618,-0.804375264200338,0.17203143843026342
2.18,1.2487819459114142,0.4860446755004384,0.8945033917225281,0.5457550595605121,1.3481898518979982,0.5493488860644715,-0.010375776073571319,0.5225076776621512,0.46861853328074754,0.24922917216586582,-0.7846009030620189,0.17110610778673052
2.19,1.2622871004072918,0.4915505726608385,0.8943607441059528,0.5509886766090016,1.352823488452261,0.5518252073680692,-0.018119372408127554,0.5242142417878082,0.45808322951346647,0.24602598023167793,-0.7639758580146414,0.17021196970686575
2.2,1.275838061946576,0.4970810719629902,0.894141706065127,0.5562393151197602,1.3573510046702533,0.5542692231604136,-0.025652428613508138,0.5259120231755632,0.4473943803418956,0.2427680356900761,-0.7424914268605821,0.16934966740943053
2.21,1.2894337616400648,0.502635847610728,0.8938484261156843,0.5615068888679181,1.3617708625273892,0.5566803848886771,-0.03296630731765815,0.5276013433993341,0.43655147165747765,0.23945513319043787,-0.7201389074022162,0.16851984411318655
2.22,1.303073115192606,0.5082145683120903,0.893483139582089,0.5667913148765058,1.3660815188579978,0.5590581419465268,-0.04005228412654582,0.5292825304652267,0.42555398935165967,0.23608706738214263,-0.6969095974419197,0.16772314303689712
2.23,1.3167550228516844,0.5138168972587855,0.8930481694678553,0.5720925134807758,1.3702814253553222,0.5614019416741224,-0.04690154762416421,0.5309559188115343,0.41440141931588514,0.2326636329145676,-0.6727947947820676,0.16696020739932335
2.24,1.3304783693560125,0.5194424921056553,0.8925459273257674,0.5774104083925244,1.3743690285715202,0.5637112293581181,-0.05350519937252973,0.532621849308738,0.4030932474415964,0.22918462443709084,-0.6477857972250373,0.16623168041922692
2.25,1.3442420238841186,0.5250910049501409,0.8919789141280995,0.5827449267644141,1.3783427699176638,0.5659854482316623,-0.05985425391168192,0.5342806692595063,0.39162895962023925,0.22564983659909021,-0.6218739025732032,0.16553820531537008
2.2600000000000002,1.3580448400029363,0.5307620823117472,0.8913497211368352,0.5880959992542946,1.3822010856637397,0.5682240394743961,-0.06593963875968534,0.5359327323986954,0.3800080417432571,0.22205906404994408,-0.5950504086289403,0.16488042530651495
2.27,1.3718856556163936,0.5364553651115079,0.8906610307738869,0.5934635600895247,1.385942406938648,0.5704264422124553,-0.0717521944126272,0.5375783988933491,0.36822997970209503,0.21841210143903056,-0.567306613194626,0.16425898361142371
2.2800000000000002,1.3857632929140022,0.5421704886514507,0.8899156174913168,0.5988475471312955,1.3895651597302057,0.5725920935184687,-0.07728267434461872,0.5392180353426989,0.3562942593881955,0.21470874341572682,-0.5386338140726361,0.16367452344885733
2.29,1.3996765583194462,0.5479070825940621,0.889116348641555,0.6042479019389508,1.3930677648851406,0.5747204284115596,-0.0825217450077953,0.5408520147781637,0.3442003666930054,0.2109487846294122,-0.5090233090653453,0.1631276880375787
2.3000000000000003,1.413624242439172,0.553664770941752,0.8882661853476206,0.6096645698343096,1.396448638109099,0.5768108798573447,-0.08745998583231546,0.5424807166633504,0.3319477875079673,0.207132019729464,-0.47846639597512874,0.16261912059634973
2.31,1.4276051200109778,0.5594431720163197,0.8873681833733412,0.6150974999659881,1.399706189966639,0.5788628787679347,-0.09208788922636268,0.5441045268940534,0.3195360077245254,0.2032582433652605,-0.44695437260436255,0.16214946434393201
2.32,1.4416179498525994,0.5652418984384168,0.8864254939935717,0.6205466453737208,1.4028388258812332,0.5808758540019335,-0.09639586057614208,0.5457238377982543,0.3069645132341233,0.19932725018617925,-0.41447853675542445,0.1617193624990878
2.33,1.4556614748103043,0.5710605571070145,0.885441364864416,0.6260119630526837,1.4058449461352693,0.5828492323644398,-0.10037421824588477,0.5473390481361228,0.294232789928207,0.19533883484159903,-0.3810301862306875,0.16132945828057885
2.34,1.4697344217074775,0.5768987491788672,0.8844191408934444,0.631493414017815,1.4087229458700503,0.584782438607045,-0.10401319357784428,0.5489505631000162,0.28134032369821993,0.19129279198089755,-0.34660061883252924,0.16098039490716753
2.35,1.4838355012932123,0.5827560700479774,0.8833622651099152,0.6369909633681377,1.4114712150857915,0.5866748954278351,-0.10730293089229848,0.550558794314479,0.2682866004356057,0.18718891625345327,-0.31118113236332356,0.16067281559761556
2.36,1.497963408190898,0.588632109325061,0.8822742795349934,0.6425045803510808,1.4140881386416249,0.5885260234713895,-0.11023348748754858,0.5521641598362439,0.25507110603180905,0.1830270023086431,-0.2747630246254471,0.16040736357068464
2.37,1.5121168208468094,0.5945264508170125,0.8811588260519713,0.6480342384268017,1.416572096255595,0.5903352413287812,-0.11279483363991974,0.5537670841542305,0.2416933263782739,0.1788068447958462,-0.23733759342127625,0.16018468204513725
2.38,1.5262944014786972,0.6004386725063692,0.8800196472764876,0.6535799153325083,1.4189214625046624,0.5921019655375777,-0.11497685260376095,0.5553679981895469,0.22815274736644436,0.17452823836444,-0.1988961365531865,0.16000541423973466
2.39,1.5404947960243764,0.6063683465307769,0.8788605874267476,0.6591415931467798,1.4211346068247013,0.5938256105818394,-0.11676934061144478,0.5569673392954883,0.21444885488776655,0.17019097766380328,-0.1594299518235518,0.15987020337324018
2.4,1.554716634090314,0.6123150391624539,0.8776855931937422,0.66471925835389,1.4232098935105002,0.5955055888921211,-0.1181620068733677,0.5585655512575374,0.20058113483368234,0.16579485734331337,-0.11893033703475053,0.15977969266441405
2.41,1.5689585289002221,0.6182783107876575,0.8764987146114689,0.6703129019081283,1.4251456817157615,0.5971413108454707,-0.11914447357795035,0.5601630842933646,0.18654907309563445,0.161339672052348,-0.07738858998915665,0.15973452533201937
2.42,1.5832190772436407,0.6242577158861468,0.8753041059271505,0.6759225192981213,1.4269403254531037,0.5987321847654306,-0.11970627589163643,0.561760395052828,0.17235215556507155,0.15682521644028607,-0.03479600848914677,0.15973534459481775
2.43,1.5974968594245333,0.6302528030106495,0.8741060264714553,0.6815481106111555,1.4285921735940594,0.6002776169220371,-0.11983686195889309,0.563357946617974,0.15798986813343496,0.15225128515650524,0.008856109662904288,0.1597827936715709
2.44,1.6117904392098725,0.6362631147663259,0.8729088415287168,0.6871896805974989,1.4300995698690742,0.6017770115318196,-0.11952559290221253,0.5649562085030353,0.1434616966921688,0.1476176728503833,0.05357646666461946,0.15987751578104126
2.45,1.62609836377823,0.6422881877902343,0.8717170232071534,0.6928472387347223,1.4314608528675088,0.6032297707578015,-0.11876174282211,0.5665556566544331,0.12876712713271954,0.14292417417129955,0.09937376471362391,0.16002015414199083
2.46,1.6404191636683658,0.6483275527307957,0.8705351513090884,0.6985207992920225,1.432674356037639,0.6046352947095004,-0.11753449879712387,0.568156773450776,0.11390564534652692,0.13817058376862978,0.1462567060075428,0.16021135197318098
2.47,1.6547513527278166,0.6543807342272581,0.8693679142011695,0.7042103813945422,1.4337384076866553,0.6059929814429269,-0.11583296088381706,0.5697600477028603,0.09887673722504142,0.1333566962917544,0.19423399274399955,0.160451752493375
2.48,1.6690934280614862,0.6604472508891628,0.8682201096845887,0.7099160090876937,1.4346513309806601,0.6073022269605859,-0.11364614211677707,0.571365974653669,0.08367988865970288,0.12848230639005012,0.24331432712061796,0.1607419989213335
2.49,1.6834438699802339,0.6665266152758085,0.867096645865302,0.7156377114014801,1.4354114439446741,0.608562425211476,-0.11096296850861266,0.572975055978375,0.06831458554195546,0.12354720871289493,0.2935064113350214,0.1610827344758181
2.5,1.6978011419494632,0.672618333875716,0.8660025420242491,0.7213755224148171,1.4360170594626298,0.6097729680910903,-0.10777227904995842,0.5745877997843364,0.05278031376324588,0.11855119790966784,0.3448189475848378,0.16147460237559302
2.5100000000000002,1.712163940278355,0.6787218750405677,0.8649418907205074,0.7271294272368181,1.4365413874988848,0.6109236736067942,-0.1043748610011232,0.5761884378550023,0.052049068070155156,0.11159643702569422,0.3346913479844346,0.1586385678471072
2.52,1.7265319417138854,0.6848365761763592,0.8639147098813562,0.7328991951989025,1.437057320756539,0.6120050277265149,-0.1010779201733841,0.5777602844607685,0.05110180212920432,0.10468094461513135,0.3247233234497791,0.15571652916600995
2.5300000000000002,1.7409050515516635,0.6909617457351446,0.8629200026953464,0.7386845341081907,1.4375627123556947,0.6130174239120493,-0.09787986621356308,0.5793024861532199,0.049941180455768626,0.09780487609028024,0.3149137944845248,0.15270980495423767
2.54,1.7552831537517273,0.6970966961113666,0.8619567882005855,0.74448514330325,1.4380554420615976,0.6139612571793145,-0.09477911956345002,0.5808142026701578,0.04856986756523483,0.09096838686343253,0.3052616815922697,0.14961971383372233
2.5500000000000003,1.7696661112049918,0.7032407436573974,0.8610241011767888,0.750300713785957,1.4385334162846586,0.6148369240983522,-0.09177411145979626,0.5822946069356049,0.04699052797299506,0.08417163234688613,0.29576590527661795,0.14644757442639497
2.56,1.7840537659997011,0.7093932086990802,0.8601209920373283,0.756130928353359,1.4389945680804372,0.6156448227933274,-0.0888632839343168,0.5837428850598027,0.04520582619444318,0.07741476795293799,0.28642538604116674,0.1431947053541857
2.57,1.7984459396878838,0.7155534155512715,0.8592465267212857,0.7619754617295381,1.4394368571496454,0.6163853529425272,-0.08604508981369328,0.585158236339212,0.043218426744958884,0.0706979490938798,0.2772390443895132,0.13986242523902198
2.58,1.8128424335517976,0.7217206925333801,0.858399786585499,0.7678339806974709,1.4398582698381512,0.6170589157783622,-0.08331799271956919,0.586539873256513,0.041030994139943155,0.06402133118201299,0.26820580082525886,0.13645205270283756
2.59,1.827243028870387,0.7278943719849098,0.8575798682966167,0.7737061442308923,1.4402568191369773,0.617665914087366,-0.08068046706855175,0.5878870214806051,0.038646192894781016,0.05738506962963098,0.2593245758520026,0.13296490636756614
2.6,1.8416474871857311,0.7340737902810006,0.8567858837231455,0.7795916036261575,1.4406305446822978,0.6182067522101942,-0.07813099807221408,0.589198919866607,0.03606668752486098,0.0507893198490299,0.2505942899733433,0.12940230485513338
2.61,1.8560555505694971,0.7402582878479693,0.856016959827501,0.7854900026341031,1.4409775127554423,0.6186818360416264,-0.07566808173709098,0.5904748204558566,0.033295142545584105,0.044234237252505845,0.24201386369288122,0.12576556678747125
2.62,1.8704669418893929,0.7464472091788518,0.8552722385580604,0.7914009775919115,1.441295816282896,0.6190915730305654,-0.07329022486468366,0.5917139884759118,0.030334222472321107,0.0377199772523549,0.23358221751421523,0.12205601078650988
2.63,1.8848813650756142,0.7526399028489429,0.8545508767412097,0.7973241575549713,1.4415835748362937,0.6194363721800358,-0.07099594505145561,0.5929157023405488,0.027186591820481915,0.031246695260874965,0.2252982719409456,0.11827495547418296
2.64,1.8992985053873004,0.7588357215313385,0.8538520459733956,0.8032591644287393,1.4418389346324285,0.6197166440471863,-0.06878377068883496,0.5940792536497642,0.023854915105442617,0.024814546690357694,0.21716094747667022,0.11442371947241885
2.65,1.9137180296789842,0.7650340220124769,0.853174932513176,0.8092056131006041,1.4420600685332443,0.6199328007432875,-0.06665224096321361,0.5952039471897727,0.020341856842600675,0.018423686953102744,0.209169164624989,0.1105036214031486
2.66,1.9281395866670425,0.771234165207679,0.8525187371732694,0.8151631115717465,1.4422451760458377,0.6200852559337331,-0.06459990585594794,0.5962891009330081,0.016650081547341128,0.012074271461404898,0.2013218438895012,0.1065159798883015
2.67,1.9425628071961527,0.7774355161766913,0.8518826752126073,0.8211312610890049,1.4423924833224662,0.6201744248380414,-0.0626253261433577,0.597334046038126,0.01278225373506131,0.005766455627561111,0.19361790577380572,0.10246211354981073
2.68,1.9569873045057362,0.7836374441392254,0.851265976228382,0.827109656276733,1.4425002431605345,0.6202007242298517,-0.06072707339672709,0.5983381268499989,0.008741037921142836,-0.0004996051361351034,0.18605627078150327,0.0983433410096052
2.69,1.9714126744964162,0.7898393224904998,0.8506678840480983,0.8330978852686658,1.442566735002602,0.6201645724369269,-0.05890372998230445,0.599300700899719,0.004529098620984773,-0.0067237554173832925,0.17863585941619178,0.09416098088961763
2.7,1.9858384959964666,0.7960405288167818,0.8500876566216242,0.8390955298397795,1.4425902649363849,0.6200663893411534,-0.05715388906130148,0.6002211389045985,0.00014910034996673538,-0.012905839803891345,0.17135559218147153,0.08991635181177597
2.71,2.000264331028264,0.8022404449109268,0.8495245659132397,0.8451021655381545,1.4425691656947501,0.6199065963785392,-0.055476154589894466,0.6010988247681679,-0.004396292376513594,-0.01904570288336306,0.16421438958094098,0.08561077239801175
2.72,2.0146897250747413,0.8084384567879234,0.8489778977936897,0.8511173618168385,1.4425017966557205,0.619685616539217,-0.05386914131922348,0.6019331555801787,-0.009104415043066083,-0.025143189243500647,0.1572111721182003,0.08124556127025684
2.73,2.029114207345837,0.8146339547004302,0.848446951932232,0.8571406821657075,1.4423865438424728,0.6194038743674414,-0.05233147479539242,0.6027235416165997,-0.01397260313430293,-0.03119814347200972,0.15034486029684843,0.07682203705044009
2.74,2.0435372910449443,0.8208263331543193,0.8479310416886885,0.8631716842433275,1.4422218199233374,0.6190617959615901,-0.050861791359469624,0.6034694063396204,-0.01899819213483478,-0.03721041015659157,0.1436143746204851,0.07234151836049427
2.75,2.0579584736353684,0.8270149909242174,0.8474294940054957,0.869209920008818,1.4420060642117971,0.6186598089741637,-0.04945873814748748,0.6041701863976491,-0.024178517529268695,-0.04317983388495275,0.1370186355927088,0.06780532382234908
2.7600000000000002,2.0723772371067724,0.8331993310690462,0.8469416492997548,0.8752549358537135,1.4417377426664895,0.6181983426117859,-0.04812097309044183,0.604825331625313,-0.029510914802218624,-0.04910625924479625,0.13055656371711974,0.06321477205793427
2.77,2.0867930482416357,0.8393787609475659,0.8464668613552833,0.8813062727338269,1.4414153478912084,0.6176778276352036,-0.046847164914292666,0.6054343050434597,-0.0349927194382908,-0.05498953082382638,0.12422707949731682,0.058571181689182183
2.7800000000000002,2.101205358881699,0.845552692233913,0.8460044972146624,0.8873634663011094,1.441037399134898,0.6170986963592864,-0.04563599313996409,0.6059965828591554,-0.0406212669220975,-0.06082949320974709,0.1180291034368998,0.053875871338021186
2.79,2.115613606194417,0.8517205409331443,0.8455539370712911,0.8934260470355143,1.4406024422916586,0.6164613826530269,-0.044486148083344584,0.6065116544656851,-0.0463938927382474,-0.06662599099026223,0.11196155603946671,0.04913015962638545
2.8000000000000003,2.130017212939412,0.8578817273967767,0.8451145741614333,0.8994935403768589,1.4401090499007438,0.6157663219395405,-0.04339633085528632,0.6069790224425546,-0.052307932371348675,-0.07237886875307487,0.10602335780861909,0.0443353651762024
2.81,2.144415587734925,0.8640356763383287,0.8446858146562699,0.9055654668566865,1.4395558211465596,0.6150139511960652,-0.042365253361604925,0.6073982025554872,-0.058360721306015106,-0.07808797108589016,0.10021342924795494,0.03949280660940399
2.82,2.1588081253242692,0.8701818168488626,0.8442670775539498,0.9116413422301297,1.4389413818586692,0.6142047089539634,-0.041391638303081284,0.6077687237564268,-0.06454959502685143,-0.08375314257641167,0.09453069086107403,0.0346038025479217
2.83,2.1731942068422754,0.8763195824125246,0.8438577945716383,0.9177206776077703,1.438264384511787,0.6133390352987191,-0.04047421917545897,0.6080901281835365,-0.07087188901847319,-0.08937422781234389,0.08897406315157437,0.02966967161368428
2.84,2.187573200081747,0.882448410922086,0.8434574100375685,0.9238029795875038,1.4375235082257822,0.6124173718699396,-0.039611740269446416,0.6083619711611981,-0.07732493876548896,-0.094951071381391,0.08354246662305716,0.024691732428622798
2.85,2.201944459759916,0.8885677446944847,0.8430653807830915,0.9298877503863997,1.4367174587656772,0.6114401618613552,-0.03880295667071596,0.6085838212000126,-0.08390607975250253,-0.10048351787125423,0.07823482177912118,0.0196713036146709
2.86,2.2163073277848855,0.8946770304863666,0.8426811760347268,0.9359744879725647,1.4358449685416494,0.6104078500208194,-0.03804663425990348,0.6087552599968012,-0.090612647464133,-0.10597141186964137,0.07305004912336527,0.014609703793755757
2.87,2.230661133522092,0.900775719509628,0.8423042773062142,0.9420626861970067,1.4349047966090303,0.6093208826503083,-0.03734154971260947,0.6088758824346041,-0.09744197738498517,-0.11141459796425457,0.06798706915938829,0.009508251587808603
2.88,2.2450051940607456,0.9068632674469539,0.8419341782905607,0.9481518349254926,1.4338957286683043,0.6081797076059213,-0.03668649049939775,0.6089452965826805,-0.10439140499966937,-0.1168129207427972,0.06304480239079163,0.004368265618762079
2.89,2.2593388144802895,0.9129391344673615,0.8415703847520939,0.9542414201704144,1.432816577065109,0.6069847742978804,-0.03608025488579708,0.608963123696509,-0.11145826579279394,-0.1221662247929739,0.05822216932117272,-0.0008089354914548319
2.9,2.2736612881168483,0.919002785241741,0.8412124144185107,0.9603309242226492,1.4316661807902387,0.6057365336905308,-0.03552165193229915,0.6089289982177876,-0.11863989524897223,-0.12747435470248947,0.0535180904541315,-0.006022033120911818
2.91,2.287971896829679,0.9250536889583959,0.8408597968729284,0.9664198257834221,1.4304434054796369,0.6044354383023403,-0.03500950149436058,0.6088425677744327,-0.12593362885281256,-0.13273715505904704,0.04893148629326732,-0.011269708647676957
2.92,2.30226991126763,0.9310913193385871,0.8405120734459361,0.9725076000961704,1.4291471434144074,0.6030819422059005,-0.03454263422240125,0.6087034931805824,-0.1333368020889243,-0.1379544704503502,0.04446127734217939,-0.016550643449819935
2.93,2.316554591135579,0.9371151546520695,0.8401687971076421,0.9785937190784016,1.4277763135208028,0.6016765010279254,-0.034119891561805546,0.6085114484365919,-0.14084675044191963,-0.14312614546410402,0.0401063841044671,-0.021863518905411106
2.94,2.3308251854608955,0.9431246777326372,0.8398295323597271,0.9846776514535586,1.426329861370231,0.6002195719492516,-0.03374012575292196,0.6082661207290361,-0.14846080939640494,-0.14825202468801135,0.0358657270837304,-0.02720701639251827
2.95,2.3450809328598887,0.9491193759936628,0.8394938551274933,0.9907588628828814,1.4248067591792548,0.5987116137048393,-0.033402199831062546,0.6079672104307098,-0.15617631443699398,-0.1533319527097774,0.03173822678356755,-0.032579817289212054
2.96,2.359321061804256,0.9550987414436384,0.8391613526519142,0.9968368160972678,1.4232060058095883,0.5971530865837706,-0.03310498762650342,0.6076144311006262,-0.16399060104828933,-0.15836577411710318,0.027722803707579374,-0.03798060297355943
2.97,2.373544790887545,0.96106227070172,0.8388316233816873,1.0029109710291397,1.421526626768104,0.5955444524292527,-0.032847373764485086,0.6072075094840191,-0.17190100471491088,-0.1633533334976971,0.023818378359363374,-0.04340805482363319
2.98,2.387751329091592,0.9670094650132639,0.8385042768652815,1.0089807849442995,1.419767674206824,0.5938861746386137,-0.03262825366521152,0.606746185512341,-0.1799048609214613,-0.16829447543926018,0.020023871242520697,-0.04886085421749947
2.99,2.4019398760529795,0.9729398302653707,0.8381789336429897,1.0150457125737966,1.4179282269229265,0.5921787181633055,-0.032446533543851436,0.6062302123032631,-0.1879995051525536,-0.17318904452949718,0.016338202860648937,-0.05433768253323057
3.0,2.4161096223294884,0.978852877002427,0.8378552251389775,1.021105206245788,1.4160073903587431,0.5904225495089028,-0.03230113041053668,0.6056593561606767,-0.1961822728927971,-0.17803688535611167,0.01276029371734902,-0.05983722114889284
3.0100000000000002,2.4302597496665492,0.9847481204416441,0.8375327935533341,1.0271587160173996,1.414004296601758,0.5886181367351029,-0.032190972070363776,0.6050333965746917,-0.20445049962680129,-0.1828378425068085,0.009289064316218842,-0.06535815144255785
3.02,2.4443894312636947,0.9906250804886036,0.8372112917541253,1.0332056898065924,1.411918104384612,0.5867659494557274,-0.032114997123393045,0.6043521262216386,-0.21280152083917536,-0.18759176056929078,0.0059234351608593305,-0.07089915479229397
3.0300000000000002,2.4584978320410062,0.9964832817527939,0.8368903831694388,1.0392455735240191,1.409747999085098,0.5848664588387189,-0.03207215496464877,0.6036153509640655,-0.2212326720145319,-0.192298484131263,0.002662326754868438,-0.07645891257617071
3.04,2.4725841089055716,1.0023222535631535,0.836569741679438,1.0452778112048895,1.4074931927261631,0.5829201376061448,-0.03206140578411925,0.6028228898507412,-0.22974128863747656,-0.1969578577804283,-0.0004953403981535209,-0.08203610617225676
3.0500000000000003,2.4866474110179313,1.008141529983613,0.8362490515084121,1.051301845140833,1.4051529239759084,0.5809274600341944,-0.03208172056675664,0.601974575116653,-0.23832470619262347,-0.20156972610449203,-0.003550645794608176,-0.08762941695862281
3.06,2.5006868800585336,1.0139406498286339,0.835928007116825,1.057317116011758,1.4027264581475876,0.5788889019531795,-0.0321320810924775,0.6010702521830074,-0.24698026016458052,-0.2061339336911573,-0.0065046689308954075,-0.09323752631333704
3.0700000000000003,2.5147016504941893,1.0197191566787542,0.8356063130933684,1.0633230630177202,1.4002130871996117,0.5768049407475367,-0.0322114799361619,0.6001097796572313,-0.2557052860379587,-0.21065032512812853,-0.009358489303415929,-0.0988591156144697
3.08,2.5286908498445118,1.025476598896125,0.8352836840470087,1.069319124010776,1.3976121297355424,0.5746760553558239,-0.03231892046765446,0.5990930293329699,-0.2644971192973651,-0.215118745003109,-0.012113186408570953,-0.10449286624008891
3.09,2.542653598948381,1.0312125296400536,0.8349598444990395,1.0753047356268524,1.3949229310040963,0.5725027262707224,-0.03245341685176342,0.598019886190088,-0.27335309542741215,-0.2195390379038029,-0.014769839742760027,-0.11013745956826448
3.1,2.5565890122303885,1.0369265068825448,0.8346345287751319,1.081279333417604,1.3921448628991437,0.5702854355390365,-0.03261399404826122,0.5968902483946694,-0.28227054991271006,-0.22391104841791498,-0.017329528802385308,-0.11579157697706666
3.11,2.570496197967287,1.042618093423842,0.834307480897383,1.087242351982279,1.3892773239597087,0.5680246667616935,-0.032799687811884,0.5957040272990173,-0.29124681823786625,-0.22823462113314796,-0.019793333083845954,-0.12145389984456323
3.12,2.584374258554453,1.0482868569079702,0.8339784544763705,1.0931932250995797,1.3863197393699709,0.5657209050937441,-0.033009544692332235,0.5944611474416555,-0.3002792358874935,-0.23250960063720671,-0.02216233208354379,-0.12712310954882478
3.13,2.598222290772323,1.053932369838273,0.8336472126031977,1.0991313858595237,1.3832715609592623,0.5633746372443612,-0.033242622034270294,0.593161546547325,-0.30936513834620016,-0.2367358315177951,-0.02443760529787914,-0.13279788746792032
3.14,2.6120393860528552,1.0595542095929573,0.8333135277415478,1.1050562667953077,1.3801322672020682,0.5609863514768408,-0.03349798797732659,0.5918051755269874,-0.31850186109859524,-0.24091315836261684,-0.026620232223252216,-0.13847691497991865
3.15,2.625824630745981,1.0651519584406344,0.8329771816197319,1.1109673000151687,1.3769013632180296,0.5585565376086026,-0.033774721456093504,0.5903919984778236,-0.3276867396292902,-0.24504142575937615,-0.028711292356064455,-0.14415887346288958
3.16,2.639577106386047,1.070725203555859,0.8326379651227407,1.1168639173342472,1.3735783807719393,0.556085687011188,-0.03407191220012726,0.5889219926832328,-0.33691710942289377,-0.24912047829577633,-0.030711865192715404,-0.1498424442949019
3.17,2.6532958899582844,1.0762735370346737,0.832295678184296,1.1227455504064487,1.3701628782737465,0.5535742926102626,-0.034388660733948584,0.587395148612835,-0.34619030596401856,-0.2531501605595228,-0.032623030229607164,-0.15552630885402596
3.18,2.666980054165238,1.0817965559101457,0.8319501296788973,1.1286116308563054,1.3666544407785524,0.5510228488856143,-0.034724078377041556,0.5858114699224686,-0.3555036647372709,-0.257130317138318,-0.034445866963139116,-0.16120914851833035
3.19,2.6806286676932385,1.0872938621679133,0.8316011373138755,1.1344615904108395,1.363052679986612,0.5484318518711537,-0.035077287243854824,0.584170973454191,-0.3648545212272616,-0.2610607926198667,-0.03618145488971253,-0.16688964466588418
3.2,2.694240795478839,1.0927650627617238,0.8312485275214428,1.1402948610314254,1.3593572342433367,0.5458017991549156,-0.035447420243800584,0.58247368923628,-0.3742402109186016,-0.26494143159187267,-0.03783087350572806,-0.17256647867475738
3.21,2.7078154989752736,1.0982097696289732,0.8308921353507404,1.146110875045649,1.3555677685392868,0.5431331898790559,-0.03583362108125554,0.5807196604832312,-0.38365806929590174,-0.2687720786420402,-0.03939520230758625,-0.1782383319230194
3.22,2.721351836418913,1.103627599706254,0.830531804359894,1.1519090652791764,1.351683974510183,0.5404265247398552,-0.03623504425555982,0.5789089435957614,-0.393105431843769,-0.2725525783580728,-0.04087552079168755,-0.18390388578873884
3.23,2.7348488630957037,1.109018174944888,0.8301673865080583,1.1576888651876078,1.347705570436895,0.537682305987716,-0.03665085506101798,0.577041608160805,-0.4025796340468146,-0.27628277532767465,-0.042272908454432934,-0.18956182164998492
3.24,2.748305631607629,1.114381122326474,0.8297987420474717,1.1634497089883458,1.3436323012454476,0.5349010374271643,-0.037080229586898564,0.5751177369515164,-0.41207801138964895,-0.27996251413854945,-0.04358844479222296,-0.1952108208848281
3.25,2.7617211921391616,1.119716073878426,0.8294257394155045,1.1691910317924563,1.3394639385070208,0.5320832244168487,-0.037522354717433926,0.5731374259272698,-0.42159789935688163,-0.2835916393784016,-0.04482320930145833,-0.20084956487133643
3.2600000000000002,2.775094592723705,1.1250226666895142,0.8290482551267094,1.1749122697365277,1.3352002804379466,0.5292293738695406,-0.03797642813182053,0.5711007842336572,-0.4311366334331228,-0.28716999563493506,-0.04597828147853955,-0.20647673498758012
3.27,2.7884248795100617,1.13030054292541,0.8286661736648739,1.1806128601145385,1.3308411518997127,0.5263399942521353,-0.03844165830421893,0.5690079342024921,-0.4406915491029819,-0.2906974274958537,-0.0470547408198676,-0.21209101261162844
3.2800000000000002,2.801711097028864,1.1355493498442208,0.8282793873750676,1.1862922415097141,1.3263864043989597,0.5234155955856502,-0.03891726450375341,0.5668590113518053,-0.45025998185106886,-0.2941737795488615,-0.04805366682184281,-0.2176910791215504
3.29,2.814952288459044,1.140768739812037,0.8278877963556942,1.1919498539263917,1.3218359160874824,0.5204566894452257,-0.039402476794512475,0.5646541643858479,-0.4598392671619935,-0.2975988963816626,-0.048976138980866,-0.22327561589541534
3.3000000000000003,2.8281474958942745,1.1459583703184706,0.8274913083505429,1.1975851389218832,1.317189591762229,0.5174637889601255,-0.03989653603554885,0.5623935551950904,-0.4694267405203658,-0.30097262258196,-0.0498232367933375,-0.2288433043112923
3.31,2.8412957606094214,1.1511179039921953,0.827089838640835,1.2031975397383343,1.3124473628653013,0.5144374088137358,-0.0403986938808788,0.5600773588562218,-0.47901973741079606,-0.304294802737459,-0.050596039755658795,-0.2343928257472513
3.3200000000000003,2.854396123327003,1.1562470086164929,0.8266833099372801,1.2087865014345915,1.3076091874839573,0.5113780652435667,-0.04090821277948281,0.5577057636321515,-0.4886155933178933,-0.3075652814358628,-0.051295627364229324,-0.2399228615813611
3.33,2.867447624483633,1.161345357144787,0.8262716522721208,1.2143514710180585,1.3026750503506062,0.5082862760412501,-0.041424365975305494,0.5552789709720075,-0.49821164372626736,-0.3107839032648755,-0.05192307911545063,-0.24543209319169135
3.34,2.880449304496473,1.1664126277161904,0.8258548028911865,1.2198918975765636,1.2976449628428126,0.5051625605525416,-0.04194643750725535,0.5527971955111368,-0.50780522412053,-0.3139505128122012,-0.05247947450572321,-0.25091920195631134
3.35,2.8934002040296902,1.1714485036710434,0.8254327061459421,1.225407232410219,1.2925189629832947,0.5020074396773198,-0.042473722209204756,0.5502606650711069,-0.5173936699852897,-0.31706495466554385,-0.052965893031447886,-0.25638286925329024
3.36,2.9062993642608976,1.1764526735664549,0.8250053133855387,1.2308969291632823,1.2872971154399229,0.49882143586958494,-0.043005525709990444,0.5476696206597029,-0.526974316805155,-0.32012707341260715,-0.05338341418902459,-0.26182177646069715
3.37,2.9191458271476236,1.1814248311918474,0.8245725828488661,1.2363604439560227,1.2819795115257255,0.49560507313746266,-0.04354116443341277,0.5450243164709313,-0.5365445000647386,-0.3231367136410961,-0.05373311747485482,-0.26723460495660234
3.38,2.9319386356937427,1.186364675584491,0.8241344795565989,1.2417972355165787,1.2765662691988813,0.4923588770431996,-0.04407996559823632,0.542325019885016,-0.5461015552486486,-0.32609371993871317,-0.05401608238533878,-0.27262003611907404
3.39,2.9446768342159424,1.1912719110450525,0.8236909752032504,1.2472067653128223,1.2710575330627232,0.48908337470316576,-0.04462126721818971,0.5395720114684011,-0.5556428178414947,-0.32899793689316303,-0.05423338841687719,-0.27797675132618194
3.4,2.957359468610168,1.1961462471531312,0.823242048049222,1.2525884976842216,1.26545347436574,0.48577909478785486,-0.04516441810196539,0.5367655849737503,-0.5651656233278879,-0.3318492090921499,-0.05438611506587082,-0.2833034319559955
3.41,2.9699855866180713,1.2009873987828008,0.8227876828128521,1.2579418999737009,1.2597542910015715,0.482446567521882,-0.04570877785321997,0.5339060473399452,-0.5746673071924389,-0.3346473811233778,-0.05447534182872049,-0.2885987593865844
3.42,2.9825542380934755,1.2057950861181557,0.8223278705624697,1.263266442659508,1.253960207509015,0.4790863246839873,-0.046253716870574,0.530993718692089,-0.5841452049197557,-0.33739229757455025,-0.05450214820182642,-0.2938614149960175
3.43,2.9950644752688103,1.2105690346688445,0.8218626086084414,1.2685615994870685,1.248071475072019,0.47569889960703243,-0.04679861634761198,0.5280289323415022,-0.5935966519944476,-0.34008380303337127,-0.054467613681589366,-0.29909008016236394
3.44,3.007515353021571,1.2153089752856165,0.8213919003952229,1.2738268476008552,1.2420883715196864,0.47228482717800224,-0.04734286827288253,0.5250120347857252,-0.6030189839011273,-0.3427217420875457,-0.05437281776441072,-0.3042834362636937
3.45,3.019905929140773,1.2200146441758621,0.8209157553934109,1.2790616676762465,1.2360112013262747,0.46884464383800495,-0.047885875429898445,0.5219433857085183,-0.6124095361244031,-0.3453059593247765,-0.05421883994668997,-0.30944016467807556
3.46,3.032235264593395,1.2246857829191509,0.8204341889917901,1.2842655440513886,1.2298402956111945,0.465378887582271,-0.048427051397135934,0.51882335797986,-0.6217656441488821,-0.34783629933276683,-0.054006759724828046,-0.31455894678357854
3.47,3.0445024237908447,1.2293221384827797,0.8199472223893886,1.2894379648590606,1.2235760121390111,0.46188809796015473,-0.048965820548035804,0.5156523376559494,-0.6310846434591793,-0.3503126066992228,-0.053737656595226224,-0.31963846395827233
3.48,3.056706474855391,1.2339234632373053,0.8194548824875223,1.294578422158533,1.217218735319443,0.4583728160751328,-0.04950161805100267,0.512430723979204,-0.6403638695399021,-0.3527347260118472,-0.0534126100542851,-0.3246773975802273
3.49,3.0688464898866306,1.2384895149720916,0.8189572017818498,1.299686412067432,1.2107688762073636,0.45483358458480516,-0.05003388986940496,0.5091589293782608,-0.6496006578756615,-0.3551025018583447,-0.05303269959840473,-0.32967442902751154
3.5,3.080921545227936,1.24302005691085,0.8184542182544213,1.3047614348936019,1.2042268725027985,0.45127094770089415,-0.050562092761575556,0.505837379467976,-0.6587923439510632,-0.3574157788264174,-0.05259900472398604,-0.3346282396781939
3.5100000000000002,3.0929307217329,1.247514857727177,0.8179459752657273,1.3098029952669648,1.197593188550928,0.4476854511892458,-0.051085694280810806,0.5024665130494252,-0.6679362632507235,-0.35967440150377183,-0.052112604927430084,-0.33953751091034534
3.52,3.104873105031803,1.2519736915601025,0.8174325214467533,1.3148106022713884,1.1908683153420876,0.44407764236982894,-0.05160417277537163,0.499046782109904,-0.6770297512592474,-0.3618782144781103,-0.0515745797051369,-0.3444009241020336
3.5300000000000002,3.1167477857980432,1.2563963380296221,0.8169139105910244,1.31978376957654,1.184052770511765,0.440448070116735,-0.05211701738848254,0.4955786518229261,-0.686070143461246,-0.3640270623371371,-0.05098600855350732,-0.3492171606313288
3.54,3.128553860014608,1.2607825822522465,0.8163902015466605,1.3247220155697557,1.1771470983406032,0.4367972848581785,-0.05262372805833204,0.4920626005482253,-0.695054775341331,-0.3661207896685563,-0.05034797096894217,-0.35398490187630016
3.5500000000000003,3.1402904292405123,1.2651322148565365,0.8158614581084245,1.3296248634879004,1.1701518697543964,0.43312583857649695,-0.05312381551807294,0.4884991198317544,-0.703980982384111,-0.36815924106007225,-0.04966154644784215,-0.35870282921501784
3.56,3.1519566008772535,1.2694450319986474,0.8153277489097717,1.3344918415492266,1.1630676823240966,0.42943428480815105,-0.05361680129582169,0.4848887144056856,-0.712846100074195,-0.3701422610993883,-0.04892781448660766,-0.3633696240255493
3.5700000000000003,3.1635514884352722,1.2737208353778726,0.8147891473149037,1.3393224830852442,1.1558951602658067,0.42572317864372433,-0.05410221771465917,0.48123190218841067,-0.7216474638961934,-0.37206969437420856,-0.048147854581639504,-0.3679839676859651
3.58,3.175074211800387,1.2779594322521781,0.8142457313108143,1.3441163266725744,1.1486349544407848,0.421993076727923,-0.05457960789263011,0.4775292142845401,-0.7303824093347182,-0.37394138547223754,-0.04732274622933852,-0.37254454157433514
3.59,3.186523897500259,1.2821606354537498,0.8136975833993434,1.348872916264817,1.1412877423554422,0.4182445372595767,-0.055048525742742827,0.4737811949849042,-0.7390482718743767,-0.37575717898117866,-0.04645356892610508,-0.37705002706872737
3.6,3.19789967897084,1.286324263404532,0.8131447904892255,1.353591801324412,1.1338542281613453,0.41447811999163764,-0.055508535972970396,0.4699884017665522,-0.7476423869997806,-0.3775169194887369,-0.04554140216834024,-0.3814991055472121
3.61,3.2092006968228173,1.2904501401317676,0.8125874437881397,1.3582725369544975,1.1263351426552122,0.41069438623118104,-0.05595921408624921,0.4661514052927527,-0.7561620901955366,-0.37922045158261364,-0.04458732545244393,-0.38589045838785774
3.62,3.2204260991080815,1.2945380952835446,0.8120256386947633,1.362914684030781,1.1187312432789183,0.4068938988394054,-0.05640014638048002,0.4622707894129944,-0.7646047169462582,-0.3808676198505163,-0.043592418274817524,-0.39022276696873504
3.63,3.2315750415861584,1.2985879641443299,0.8114594746908171,1.3675178093333917,1.1110433141194889,0.4030772222316317,-0.05683092994852784,0.4583471511629839,-0.7729676027365535,-0.38245826888014633,-0.04255776013186141,-0.39449471266791125
3.64,3.2426466879906735,1.3025995876505159,0.8108890552331198,1.3720814856787478,1.1032721659091065,0.39924492237730447,-0.057251172678220885,0.45438110076464844,-0.7812480830510329,-0.38399224325920844,-0.04148443051997597,-0.3987049768634576
3.65,3.2536402102958015,1.30657281240596,0.8103144876456375,1.3766052920514191,1.0954186360251061,0.39539756679999066,-0.057660493252352174,0.4503732616261335,-0.7894434933743062,-0.38546938757540716,-0.04037350893556235,-0.40285224093344274
3.66,3.26455478898271,1.310507490697525,0.8097358830115315,1.3810888137359854,1.0874835884899758,0.39153572457738023,-0.05805852114867838,0.4463242703418044,-0.7975511691909833,-0.38688954641644524,-0.03922607487502083,-0.40693518625593583
3.67,3.275389613306028,1.3144034805106228,0.8091533560652135,1.3855316424489055,1.0794679139713597,0.3876599663412868,-0.058444896639920196,0.4422347766922463,-0.8055684459856738,-0.3882525643700281,-0.038043207834752346,-0.41095249420900637
3.68,3.286143881560275,1.3182606455447528,0.8085670250843909,1.3899333764703707,1.071372529782054,0.3837708642776458,-0.05881927079376231,0.4381054436442625,-0.8134926592429883,-0.38955828602385867,-0.03682598731115716,-0.41490284617072404
3.69,3.2968168013463317,1.3220788552290448,0.8079770117821203,1.394293620776174,1.06319837988001,0.3798689921265166,-0.05918130547285355,0.4339369473508763,-0.8213211444475355,-0.3908065559656415,-0.03557549280063632,-0.4187849235191565
3.7,3.307407589837883,1.3258579847377998,0.8073834411988572,1.3986119871695692,1.0549464348683313,0.37595492518208107,-0.059530673334806605,0.4297299771513304,-0.8290512370839269,-0.39199721878308025,-0.03429280379959043,-0.4225974076323751
3.71,3.317915474047865,1.3295979150060298,0.8067864415945051,1.4028880944131326,1.046617691995276,0.37202924029264384,-0.0598670578321982,0.425485235571086,-0.8366802726367712,-0.39313011906387896,-0.032978999804420206,-0.42633897988844893
3.72,3.328339691094934,1.3332985327450044,0.8061861443404693,1.4071215683606288,1.0382131751542591,0.3680925158606334,-0.06019015321256921,0.4212034383218251,-0.8442055865906797,-0.39420510139574216,-0.031635160311526356,-0.43000832166544667
3.73,3.3386794884698925,1.3369597304577834,0.805582683811702,1.411312042088867,1.0297339348838448,0.3641453318426001,-0.06049966451842437,0.41688531430144743,-0.8516245144302586,-0.3952220103663724,-0.030262364817308818,-0.43360411434143664
3.74,3.3489341243021635,1.3405814064547654,0.8049761972787571,1.415459156029569,1.0211810483677535,0.36018826974921775,-0.06079530758723234,0.41253160559407287,-0.8589343916401231,-0.3961806905634757,-0.028861692818169304,-0.4371250392944912
3.75,3.3591028676262313,1.3441634648692267,0.804366824799839,1.4195625581012281,1.0125556194348597,0.3562219126452836,-0.06107680905142604,0.40814306747004087,-0.866132553704877,-0.3970809865747533,-0.027434223810507197,-0.4405697779026758
3.7600000000000002,3.36918499864809,1.3477058156728596,0.8037547091128521,1.423621903840971,1.003858778559191,0.3522468451497166,-0.06134390633840203,0.4037204683859089,-0.8732163361091367,-0.3979227429879122,-0.025981037290724873,-0.4439370115440633
3.77,3.3791798090117076,1.3512083746913193,0.8031399955274531,1.4276368565364228,0.9950916828599301,0.3482636534355601,-0.06159634767052152,0.39926458998445524,-0.8801830743375079,-0.39870580439065373,-0.02450321275522127,-0.4472254215967204
3.7800000000000002,3.3890866020654635,1.3546710636197596,0.8025228318170995,1.4316070873575668,0.9862555161014122,0.3442729252299794,-0.06183389206510875,0.39477622709467686,-0.8870301038746016,-0.39943001537068423,-0.023001829700398324,-0.45043368943871775
3.79,3.398904693128609,1.3580938100383788,0.8019033681111011,1.4355322754886073,0.9773514886931278,0.34027524981426344,-0.062056309334452886,0.39025618773178994,-0.8937547602050282,-0.400095220515706,-0.021477967622655858,-0.453560496448125
3.8000000000000003,3.408633409757715,1.3614765474279564,0.8012817567866699,1.4394121082598317,0.9683808376897192,0.3362712180238232,-0.062263380085806785,0.38570529309722973,-0.9003543788133954,-0.4007012644134236,-0.01993270601839514,-0.4566045240030103
3.81,3.418272092013125,1.3648192151853986,0.8006581523609704,1.4432462812794733,0.9593448267909852,0.33226142224819377,-0.06245489572138713,0.3811243775786515,-0.9068262951843162,-0.401247991651541,-0.01836712438401611,-0.4595644534814438
3.8200000000000003,3.427820092725406,1.3681217586392758,0.8000327113831703,1.4470344985655725,0.950244746341876,0.32824645643103223,-0.06263065843837468,0.376514288749929,-0.9131678448023983,-0.40173524681776196,-0.016782302215920142,-0.4624389662614943
3.83,3.4372767777618005,1.371384129065367,0.7994055923264904,1.4507764726778396,0.9410819133324981,0.32422691607011933,-0.06279048122891445,0.3718758873711562,-0.9193763631522534,-0.4021628744997905,-0.015179319010507841,-0.46522674372123185
3.84,3.4466415262926784,1.374606283702199,0.798776955480256,1.4544719248495177,0.9318576713981104,0.3202033982173582,-0.06293418788011518,0.36721004738864527,-0.925449185718489,-0.40253071928533046,-0.013559254264179144,-0.46792646723872444
3.85,3.4559137310579864,1.3777881857665886,0.7981469628419453,1.4581205851192431,0.9225733908191254,0.3161765014787754,-0.06306161297404955,0.36251765593492913,-0.9313836479857169,-0.40283862576208684,-0.011923187473335317,-0.47053681819204307
3.86,3.4650927986337026,1.380929804469183,0.7975157780092418,1.4617221924629096,0.9132304685211108,0.31214682601452026,-0.0631726018877547,0.3577996133287583,-0.9371770854385479,-0.4030864385177626,-0.010272198134377186,-0.473056477959257
3.87,3.4741781496982864,1.3840311150300018,0.7968835660720837,1.4652764949255281,0.9038303280747872,0.3081149735388651,-0.06326701079323144,0.35305683307510427,-0.9428268335615866,-0.4032740021400609,-0.008607365743704687,-0.4754841279184332
3.88,3.4831692192991297,1.3870920986939776,0.7962504935047143,1.4687832497530922,0.8943744196960299,0.30408154732020476,-0.06334470665744452,0.34829024186515645,-0.9483302278394503,-0.40340116121668834,-0.006929769797719421,-0.4778184494476443
3.89,3.4920654571190086,1.3901127427464979,0.7956167280577321,1.4722422235244363,0.884864220245867,0.30004715218105793,-0.06340556724232288,0.3435007795763244,-0.9536846037567428,-0.40346776033534626,-0.005240489792820879,-0.48005812392495684
3.9,3.5008663277425347,1.3930930405289463,0.7949824386501421,1.4756531922831022,0.8753012332304817,0.2960123944980656,-0.06344948110475934,0.33868939927223685,-0.9588872967980775,-0.4034736440837403,-0.0035406052254109976,-0.48220183272844164
3.91,3.5095713109226105,1.3960329914542429,0.794347795261405,1.479015941669198,0.8656869888012104,0.2919778822019917,-0.06347634759661075,0.33385706720274166,-0.9639356424480647,-0.40341865704957347,-0.0018311955918896006,-0.4842482572361677
3.92,3.518179901846874,1.398932601022386,0.7937129688234885,1.4823302670512608,0.8560230437545431,0.28794422477772363,-0.0634860768646981,0.329004762803906,-0.9688269761913109,-0.4033026438205505,-0.00011334038865773444,-0.4861960788262045
3.93,3.5266916114041544,1.401791880835994,0.7930781311129171,1.4855959736581206,0.8463109815321253,0.2839120332642715,-0.06347858985080607,0.3241334786980168,-0.9735586335124262,-0.4031254489843741,0.0016118808878847757,-0.4880439788766202
3.94,3.5351059664509252,1.404610848615845,0.7924434546428225,1.4888128767107605,0.8365524122207537,0.2798819202547679,-0.06345381829168412,0.31924422069357905,-0.9781279498960265,-0.4028869171287497,0.0033433887413359953,-0.48979063876548623
3.95,3.543422510077752,1.4073895282164204,0.7918091125549945,1.4919808015541807,0.8267489725523816,0.27585449989646926,-0.06341170471904439,0.31433800778531873,-0.982532260826714,-0.4025868928413803,0.005080103675296321,-0.49143473987087005
3.96,3.551640801875746,1.4101279496414438,0.7911752785119307,1.4950995837892587,0.8169023259041142,0.2718303878907541,-0.0633522024595643,0.30941587215417987,-0.9867689017891026,-0.4022252207099706,0.0068209461933643745,-0.49297496357084225
3.97,3.559760418203015,1.4128261490594232,0.7905421265888869,1.4981690694046135,0.8070141622982119,0.2678102014931245,-0.06327527563488466,0.30447885916732664,-0.9908352082678022,-0.4018017453222238,0.008564836799139997,-0.4944099912434714
3.98,3.5677809524511153,1.4154841688191924,0.7899098311659277,1.5011891149084655,0.7970861984020887,0.2637945595132052,-0.06318089916161052,0.29952802737814155,-0.9947285157474224,-0.4013163112658449,0.010310695996222252,-0.495738504266827
3.99,3.5757020153115033,1.4181020574654526,0.7892785668199774,1.5041595874605018,0.7871201775283123,0.25978408231474415,-0.06306905875131064,0.29456444852622754,-0.9984461597125716,-0.4007687631285368,0.01205744428821054,-0.49695918401897843
4.0,3.583523235041987,1.4206798697543124,0.7886485082168693,1.5070803650037352,0.7771178696346044,0.25577939181561204,-0.06293975091051796,0.28958920753740625,-1.0019854756478632,-0.40015894549800457,0.013804002178703922,-0.49807071187799545
4.01,3.591244257733178,1.4232176666688299,0.7880198300033965,1.5099513363963686,0.7670810713238392,0.25178111148780236,-0.06279298294072955,0.28460340252371785,-1.0053437990379033,-0.3994867029619511,0.015549290171302355,-0.4990717692219466
4.0200000000000005,3.59886474757494,1.4257155154345538,0.7873927066993627,1.5127724015436557,0.7570116058440481,0.2477898663574324,-0.06262877293840619,0.2796081447834239,-1.0085184653673007,-0.39875188010808005,0.017292228769605233,-0.49996103742890097
4.03,3.606384387122845,1.4281734895350646,0.7867673125896315,1.5155434715297647,0.7469113230884132,0.24380628300474128,-0.06244714979497301,0.2746045588010029,-1.0115068101206717,-0.3979543215240975,0.019031738477210902,-0.5007371978769295
4.04,3.6138028775646225,1.4305916687275158,0.7861438216161782,1.5182644687496392,0.7367820995952727,0.239830989564092,-0.06224815319681909,0.2695937822471548,-1.0143061687826194,-0.39709387179770506,0.020766739797719758,-0.5013989319440995
4.05,3.62111993898661,1.4329701390581757,0.7855224072701392,1.520935327040861,0.7266258385481184,0.23586461572396988,-0.06203183362529685,0.26457696597879754,-1.016913876837759,-0.39617037551660883,0.022496153234730254,-0.5019449210084825
4.0600000000000005,3.628335310640206,1.4353089928779665,0.784903242483862,1.523555991815512,0.7164444697755923,0.23190779272698336,-0.06179825235672409,0.25955527403906775,-1.0193272697706957,-0.3951836772685102,0.024218899291842788,-0.5023738464481446
4.07,3.6354487512083224,1.4376083288580086,0.7842864995229567,1.526126420192037,0.7062399497514962,0.2279611533698641,-0.061547481462381204,0.2545298836573233,-1.0215436830660423,-0.3941336216411153,0.02593389847265587,-0.5026843896411589
4.08,3.6424600390718336,1.43986825200516,0.7836723498783456,1.5286465811271048,0.6960142615947822,0.22402533200346642,-0.06127960380851327,0.24950198524914013,-1.0235604522084092,-0.3930200532221281,0.027640071280768785,-0.5028752319655927
4.09,3.6493689725760294,1.4420888736775577,0.7830609641583137,1.5311164555474726,0.6857694150695566,0.22010096453276784,-0.06099471305632953,0.24447278241631332,-1.0253749126824054,-0.39184281659925146,0.029336338219781377,-0.5029450547995153
4.1,3.656175370297066,1.4442703116001585,0.7824525119805589,1.533536036481844,0.6755074465850801,0.21618868841686867,-0.06069291366200269,0.2394434919468582,-1.0269843999726387,-0.39060175636018923,0.031021619793292987,-0.5028925395209964
4.11,3.66287907130842,1.446412689880282,0.7818471618642431,1.5359053291927363,0.6652304191957681,0.21228914266899246,-0.06037432087666994,0.2344153438150084,-1.0283862495637224,-0.3892967170926467,0.032694836504902625,-0.502716367508105
4.12,3.6694799354473364,1.4485161390231502,0.7812450811220414,1.5382243513083391,0.6549404226011881,0.2084029678564855,-0.06003906074643228,0.22938958118121733,-1.0295777969402642,-0.38792754338432656,0.03435490885820974,-0.5024152201389109
4.13,3.6759778435812813,1.4505807959474286,0.7806464357521934,1.5404931329543778,0.6446395731460632,0.20453080610081642,-0.05968727011235464,0.2243674603921577,-1.0305563775868745,-0.3864940798229337,0.03600075735681352,-0.501987778791483
4.14,3.6823726978743943,1.4526068040007685,0.7800513903305532,1.5427117168859759,0.6343300138202692,0.2006733010775782,-0.059319096610466415,0.21935025098072192,-1.0313193269881626,-0.38499617099617156,0.03763130250431396,-0.5014327248438909
4.15,3.6886644220539404,1.454594312975348,0.7794601079026395,1.5448801586195162,0.6240139142588359,0.19683109801648535,-0.058934698671760155,0.21433923566602053,-1.0318639806287397,-0.3834336614917444,0.039245464804309405,-0.5007487396742036
4.16,3.694852961676758,1.4565434791234118,0.7788727498756869,1.5469985265645043,0.6136934707419481,0.19300484370137672,-0.05853424552219311,0.20933571035338483,-1.032187673993215,-0.381806395897356,0.040842164760400146,-0.49993450466049083
4.17,3.700938284395718,1.4584544651728157,0.7782894759106951,1.5490669021554306,0.6033709061949435,0.1891951864702126,-0.05811791718268666,0.20434098413436397,-1.0322877425662007,-0.3801142188007106,0.04242032287618469,-0.4989887011808225
4.18,3.7069203802261654,1.4603274403425637,0.7777104438144795,1.5510853799836313,0.5930484701883136,0.18540277621507784,-0.05768590446912525,0.1993563792867279,-1.0321615218323026,-0.3783569747895119,0.04397885965526299,-0.4979100106132667
4.19,3.7127992618123766,1.462162580358352,0.7771358094317227,1.5530540679291511,0.5827284389377057,0.18162826438217872,-0.057238408992358436,0.19438323127446488,-1.0318063472761305,-0.3765345084514632,0.04551669560123456,-0.49669711433589236
4.2,3.718574964694014,1.4639600674681095,0.7765657265370232,1.5549730872926073,0.5724131153039176,0.17787230397184572,-0.05677564315819905,0.1894228887477829,-1.0312195543822986,-0.3746466643742704,0.0470327512176979,-0.4953486937267705
4.21,3.7242475475725705,1.4657200904575398,0.776000346726947,1.5568425729270485,0.5621048287929038,0.17413554953853172,-0.05629783016742418,0.18447671354310868,-1.0303984786354152,-0.37269328714563565,0.0485259470082528,-0.4938634301639697
4.22,3.7298170925778242,1.4674428446656598,0.7754398193120771,1.55866267336982,0.5518059355557718,0.1704186571908124,-0.05580520401577482,0.17954608068308953,-1.029340455520088,-0.3706742213532638,0.04999520347649877,-0.492240005025559
4.23,3.7352837055342922,1.469128532000344,0.7748842912090648,1.5604335509744234,0.5415188183887807,0.1667222845913865,-0.05529800949395647,0.17463237837658951,-1.0280428205209282,-0.3685893115848581,0.051439441126035046,-0.49047709968960806
4.24,3.7406475162276775,1.470777360953865,0.7743339068326791,1.562155382042382,0.5312458867333505,0.16304709095707648,-0.054776502187638076,0.1697370080186955,-1.0265029091225453,-0.3664384024281234,0.05285758046046102,-0.4885733955341859
4.25,3.745908678671325,1.472389546618433,0.7737888079878577,1.5638283569550986,0.5209895766760466,0.15939373705882653,-0.05424094847745242,0.16486138419071072,-1.0247180568095524,-0.3642213384707634,0.054248541983375725,-0.48652757393736196
4.26,3.751067371372671,1.4739653107017392,0.7732491337617571,1.565452680305722,0.5107523509485934,0.15576288522170434,-0.05369162553899687,0.16000693466015936,-1.0226855990665535,-0.36193796430048153,0.05561124619837901,-0.4843383162772056
4.2700000000000005,3.756123797599692,1.4755048815424954,0.7727150204158029,1.567028571031007,0.5005366989278675,0.15215519932490085,-0.05312882134283248,0.15517510038078441,-1.0204028713781634,-0.3595881245049824,0.056944613609069605,-0.48200430393178656
4.28,3.7610781856473636,1.4770084941259767,0.7721866012777405,1.5685562625431766,0.4903451366358995,0.14857134480172984,-0.05255283465448457,0.15036733549254788,-1.017867209228989,-0.35717166367196995,0.058247564719047434,-0.47952421827917335
4.29,3.765930789104103,1.478476390099561,0.7716640066336851,1.570036002861784,0.48018020673987527,0.14501198863962794,-0.051963975034441834,0.14558510732163166,-1.0150759481036444,-0.35468842638914844,0.059519020031911174,-0.47689674069743665
4.3,3.7706818871182275,1.4799088177882718,0.7711473636201719,1.5714680547455762,0.4700444785521327,0.14147779938015415,-0.05136256283815799,0.1408298963804362,-1.0120264234867333,-0.3521382572442205,0.06075790005126111,-0.4741205525646437
4.3100000000000005,3.7753317846644037,1.4813060322103189,0.7706367961162074,1.5728526958243552,0.4599405480301644,0.13796944711899162,-0.050748929216049676,0.13610319636758228,-1.0087159708628695,-0.3495210008248913,0.06196312528069592,-0.4711943352588657
4.32,3.779880812810098,1.482668295092639,0.7701324246353185,1.5741902187308399,0.44987103777661686,0.13448760350594569,-0.050123416113498465,0.13140651416790883,-1.0051419257166616,-0.34683650171886427,0.0631336162238153,-0.4681167701581704
4.33,3.7843293289820292,1.4839958748864386,0.7696343662176037,1.575480931232529,0.43983859703928996,0.1310329417449443,-0.0494863762708494,0.12674136985247508,-1.0013016235327226,-0.3440846045138443,0.06426829338421787,-0.46488653864062923
4.34,3.7886777172326207,1.4852890467827324,0.7691427343217836,1.5767251563635627,0.42984590171114023,0.12760613659403974,-0.04883817322341122,0.12210929667855908,-0.997192399795659,-0.3412651537975342,0.06536607726550354,-0.4615023220843102
4.3500000000000005,3.792926388506449,1.4865480927278876,0.7686576387172501,1.5779232325565853,0.41989565433027254,0.12420786436540565,-0.048179181301457596,0.11751184108965806,-0.9928115899900802,-0.3383779941576387,0.066425888371272,-0.45796280186728167
4.36,3.7970757809067006,1.4877733014391632,0.7681791853761182,1.5790755137746064,0.4099905840799516,0.12083880292534,-0.047509785630225565,0.11295056271548942,-0.9881565296005981,-0.3354229701818609,0.06744664720512178,-0.4542666593676146
4.37,3.801126359961617,1.4889649684202515,0.7677074763652754,1.5801823696428652,0.4001334467885922,0.11749963169426247,-0.04683038212991619,0.10842703437198797,-0.9832245541118214,-0.33239992645790556,0.0684272742706532,-0.4504125759633768
4.38,3.805078618890953,1.4901233959768208,0.7672426097384324,1.5812441855806902,0.390327024929765,0.11419103164671673,-0.046141377515694804,0.10394284206130999,-0.9780129990083627,-0.3293087075734772,0.06936669007146437,-0.4463992330326398
4.39,3.808933078872422,1.4912488932320538,0.7667846794281734,1.5822613629333637,0.3805741276221921,0.11091368531136925,-0.045443189297690645,0.09949958497183009,-0.972519199774829,-0.326149158116279,0.07026381511115543,-0.4422253119534716
4.4,3.8126902893081533,1.492341776142192,0.7663337751380069,1.583234319103981,0.3708775906297528,0.10766827677100843,-0.044736245780996886,0.09509887547814211,-0.9667404918958291,-0.3229211226740136,0.07111756989332574,-0.43788949410394085
4.41,3.8163508280911373,1.4934023675120742,0.7658899822344152,1.5841634876853166,0.3612402763614786,0.10445549166254686,-0.04402098606567073,0.09074233914105889,-0.960674210855977,-0.31962444583438787,0.07192687492157449,-0.4333904608621184
4.42,3.819915301871683,1.49443099701068,0.7654533816389051,1.5850493185916825,0.35166507387155477,0.1012760171770195,-0.043297860046733194,0.08643161470761407,-0.9543176921398797,-0.3162589721851039,0.07269065069950105,-0.42872689360607225
4.43,3.823384346323867,1.495428001186669,0.7650240497200587,1.5858922781907934,0.3421548988593206,0.09813054205958482,-0.04256732841416966,0.08216835411105827,-0.9476682712321475,-0.31282454631386575,0.07340781773070465,-0.42389747371387204
4.44,3.826758626411983,1.4963937234839235,0.7646020581855834,1.5866928494356265,0.3327126936692695,0.09501975660952322,-0.04182986265292965,0.07795422247086359,-0.9407232836173927,-0.3093210128083788,0.0740772965187842,-0.4189008825635883
4.45,3.830038836656998,1.4973285142570891,0.764187473974362,1.5874515319962859,0.323341427291048,0.09194435268023926,-0.04108594504292584,0.07379089809272044,-0.9334800647802182,-0.305748216256344,0.07469800756734057,-0.4137358015332878
4.46,3.8332257014029985,1.4982327307871166,0.763780359148504,1.5881688423918623,0.3140440953594581,0.08890502367925945,-0.04033606865903583,0.06968007246853802,-0.9259359502052449,-0.3021060012454695,0.07526887137997118,-0.4084009120010437
4.47,3.836319975083648,1.4991067372968017,0.7633807707853943,1.588845314122298,0.30482372015445414,0.0859024645682338,-0.039580737371100905,0.0656234502764459,-0.9180882753770689,-0.2983942123634546,0.0757888084602773,-0.4028948953449202
4.48,3.8393224424886325,1.4999509049663278,0.7629887608697455,1.5894814978002476,0.29568335060114537,0.08293737186293493,-0.03882046584392618,0.061622749380792374,-0.9099343757803127,-0.29461269419800706,0.07625673931185634,-0.39721643294299125
4.49,3.8422339190301167,1.5007656119488062,0.7626043761856467,1.5900779612829385,0.28662606226979515,0.08001044363325938,-0.03805577953728079,0.05767970083214524,-0.9014715868995802,-0.29076129133682904,0.0766715844383089,-0.3913642061733238
4.5,3.8450552510091924,1.5015512433858187,0.7622276582086152,1.5906352898040377,0.27765495737581825,0.07712237950322542,-0.037287214705898464,0.0537960488672915,-0.892697244219482,-0.28683984836762544,0.0770322643432339,-0.3853368964139885
4.51,3.847787315882332,1.5023081914229572,0.761858642997645,1.591154086105509,0.2687731647797884,0.07427388065097484,-0.03651531839947586,0.04997355090923761,-0.8836086832246288,-0.2828482098780999,0.07733769953023067,-0.37913318504305327
4.5200000000000005,3.8504310225278395,1.503036855225366,0.7614973610872596,1.5916349705694777,0.2599838399874259,0.07146564980877224,-0.035740648462674995,0.0462139775672088,-0.8742032393996306,-0.2787862204559553,0.07758681050289873,-0.3727517534385885
4.53,3.8529873115123014,1.5037376409932812,0.7611438373795603,1.5920785813500926,0.251290165149614,0.06869839126300525,-0.03496377353512059,0.04251911263665087,-0.8644782482290942,-0.27465372468889715,0.07777851776483763,-0.3661912829786629
4.54,3.8554571553570396,1.5044109619775763,0.7607980910362772,1.592485574505389,0.24269534906238155,0.06597281085418505,-0.034185273051401954,0.038890753099227515,-0.8544310451976329,-0.2704505671646288,0.07791174181964605,-0.3594504550413459
4.55,3.8578415588045614,1.5050572384952978,0.7604601353708204,1.5928566241291489,0.23420262716691598,0.06328961597694471,-0.03340573724107265,0.03533070912282166,-0.8440589657898556,-0.26617659247085446,0.07798540317092417,-0.35252795100470713
4.5600000000000005,3.860141559085011,1.5056768979452104,0.7601299777403289,1.593192422482764,0.22581526154955744,0.06064951558004106,-0.03262576712864995,0.031840804061537664,-0.8333593454903752,-0.26183164519527824,0.07799842232227,-0.34542245224681656
4.57,3.8623582261826237,1.5062703748233366,0.7598076194377222,1.5934936801270991,0.2175365409417993,0.05805322016635284,-0.03184597453361515,0.028422874455696245,-0.8223295197837939,-0.25741556992560255,0.0779497197772846,-0.3381326401457413
4.58,3.8644926631021743,1.5068381107384987,0.7594930555837499,1.593761126054353,0.2093697807202899,0.05550144179288341,-0.031066982070413363,0.02507877003183978,-0.8109668241547277,-0.2529282112495336,0.07783821603956609,-0.3306571960795527
4.59,3.8665460061354295,1.5073805544278596,0.7591862750190426,1.5939955078199202,0.20131832290683116,0.0529948940707583,-0.030289423148454175,0.02181035370272899,-0.7992685940877888,-0.24836941375477473,0.07766283161271381,-0.3229948014263201
4.6000000000000005,3.8685194251276003,1.5078981617724632,0.7588872601961616,1.5941975916742548,0.19338553616837872,0.05053429216522454,-0.02951394197211088,0.018619501567343377,-0.7872321650675791,-0.24373902202902842,0.07742248700032817,-0.31514413756411086
4.61,3.870414123743793,1.5083913958127777,0.7585959870716499,1.5943681626947317,0.18557481581704272,0.048120352795655075,-0.0287411935407208,0.015508102910883226,-0.7748548725787145,-0.23903688066000095,0.07711610270600733,-0.30710388587099713
4.62,3.8722313397354613,1.508860726764235,0.7583124249980824,1.5945080249175083,0.17788958381008557,0.04575379423554371,-0.027971843648585293,0.012478060204766495,-0.7621340521058011,-0.2342628342353934,0.07674259923335158,-0.29887272772504514
4.63,3.8739723452068566,1.5093066320327728,0.758036536616116,1.5946180014693883,0.1703332887499247,0.043435336312506845,-0.02720656888496964,0.00953128910663148,-0.7490670391334517,-0.2294167273429124,0.07630089708595955,-0.29044934450432636
4.64,3.87563844688148,1.5097295962303754,0.7577682777465399,1.5946989346996818,0.1629094058841325,0.04116570040828571,-0.026446056634103265,0.006669718460335705,-0.7356511691462755,-0.22449840457026093,0.07578991676743108,-0.2818324175869096
4.65,3.8772309863685357,1.5101301111906147,0.7575075972823269,1.5947516863120699,0.15562143710543408,0.03894560945874348,-0.025691005075179518,0.003895290295955478,-0.7218837776288849,-0.2195077105051435,0.07520857878136478,-0.27302062835086494
4.66,3.8787513404293783,1.510508675984193,0.7572544370806822,1.5947771374964632,0.14847291095170734,0.03677578795386571,-0.02494212318235567,0.0012099598297874437,-0.7077622000658841,-0.21444448973526264,0.07455580363136072,-0.26401265817425945
4.67,3.8802009212439694,1.5108657969344819,0.7570087318550951,1.5947761890608694,0.14146738260598601,0.03465696193776169,-0.024200130724753466,-0.0013843045356545236,-0.6932837719418865,-0.20930858684832465,0.07383051182101785,-0.2548071884351655
4.68,3.881581176677325,1.5112019876330656,0.7567704090673888,1.59474976156325,0.1346084338964575,0.032589859008663735,-0.023465758266457915,-0.003885521211634657,-0.6784458287415034,-0.2040998464320316,0.07303162385393558,-0.24540290051165048
4.69,3.8828935905459696,1.5115177689552806,0.7565393888197709,1.5946987954433864,0.12789967329646235,0.030575208318926572,-0.022739747166518554,-0.006291695423199517,-0.6632457059493406,-0.1988181130740876,0.07215806023371374,-0.2357984757817837
4.7,3.8841396828843866,1.5118136690757575,0.7563155837468835,1.5946242511547397,0.1213447359244948,0.028613740575028523,-0.02202284957894879,-0.008600819209175992,-0.6476807390500126,-0.193463231362198,0.07120874146395062,-0.2259925956236355
4.71,3.885321010211471,1.512090223483963,0.7560988989078536,1.5945271092963145,0.11494728354420491,0.02670618803757019,-0.02131582845272606,-0.01081087142217152,-0.6317482635281229,-0.1880350458840645,0.07018258804824717,-0.21598394141527288
4.72,3.8864391657969786,1.5123479749997402,0.7558892316783441,1.5944083707445198,0.10871100456439331,0.024853284521275998,-0.020619457531791674,-0.012919817728574201,-0.615445614868289,-0.18253340122739292,0.06907852049020113,-0.20577119453476866
4.73,3.88749577992798,1.5125874737888494,0.7556864716426033,1.5942690567850324,0.10263961403901734,0.0230557653949921,-0.019934521355051138,-0.01492561060855302,-0.5987701285551132,-0.17695814197988602,0.06789545929341267,-0.19535303636018897
4.74,3.88849252017531,1.5128092773785107,0.7554905004855156,1.5941102092446584,0.09673685366718665,0.021314367581688587,-0.019261815256373938,-0.016826189356057952,-0.5817191400732122,-0.17130911272924942,0.06663232496148086,-0.1847281482696057
4.75,3.8894310916600223,1.5130139506729439,0.7553011918846522,1.5939328906231953,0.09100649179316589,0.01962982955845849,-0.01860214536459337,-0.018619480078818973,-0.5642899849071945,-0.16558615806318544,0.0652880379980052,-0.17389521164108723
4.76,3.890313237319837,1.5132020659689112,0.7551184114023208,1.5937381842252945,0.08545232340637465,0.018002891356517225,-0.017956328603506877,-0.020303395698346494,-0.5464799985416642,-0.1597891225693986,0.0638615189065852,-0.16285290785270012
4.7700000000000005,3.891140738175595,1.513374202971257,0.7549420163776166,1.5935271942923228,0.08007817014138263,0.016434294561204155,-0.017325192691876212,-0.021875835949933253,-0.5282865164612405,-0.15391785083559473,0.062351688190819266,-0.15159991828251984
4.78,3.8919154135977094,1.5135309488084496,0.7547718558184722,1.5933010461342265,0.07488788027791804,0.014924782311980134,-0.016709576143426497,-0.023334687382650987,-0.5097068741505231,-0.14797218744947438,0.06075746635430801,-0.14013492430860897
4.79,3.8926391215726146,1.5136728980481229,0.754607770293708,1.5930608862613915,0.06988532874085829,0.01347509930242985,-0.016110328266847163,-0.024677823359353313,-0.4907384070941285,-0.1419519769987434,0.059077773900650055,-0.12845660730904163
4.8,3.8933137589692204,1.5138006527126167,0.7544495918250829,1.5928078825165057,0.06507441710023887,0.012085991780261374,-0.015528309165791898,-0.025903104056673287,-0.47137845077666896,-0.13585706407110631,0.05731153133344491,-0.11656364866188529
4.8100000000000005,3.8939412618053644,1.5139148222945193,0.7542971437793445,1.5925432242064228,0.06045907357124691,0.010758207547305054,-0.014964389738878259,-0.027008376465026074,-0.45162434068274315,-0.12968729325426365,0.05545765915629275,-0.10445472974520831
4.82,3.8945236055142582,1.5140160237722076,0.754150240760279,1.592268122234023,0.056043253014223415,0.009492495959514402,-0.014419451679687445,-0.027991474388606163,-0.431473412296973,-0.12344250913592436,0.053515077872791306,-0.0921285319370817
4.83,3.8950628052109457,1.514104881625388,0.7540086885007626,1.5919838092300747,0.05183093693466456,0.00828960792696587,-0.013894387476764913,-0.02885021844538993,-0.4109230011039662,-0.11712255630379076,0.05148270798654009,-0.07958373661557516
4.84,3.895560915958751,1.5141820278506388,0.7538722837548105,1.5916915396851,0.0478261334832204,0.007150295913859184,-0.01339010041362032,-0.029582416067132855,-0.3899704425883286,-0.11072727934556603,0.049359470001139494,-0.06681902515875748
4.8500000000000005,3.8960200330357297,1.5142481019769514,0.7537408141896288,1.5913925900812322,0.04403287745569151,0.006075313938516347,-0.012907504568727246,-0.030185861499373967,-0.36861307223467144,-0.10425652284895381,0.047144284420188365,-0.05383307894469658
4.86,3.8964422922011206,1.5143037510812707,0.7536140582776631,1.5910882590240814,0.04045523029303766,0.005065417573382636,-0.012447524815523137,-0.030658335801429626,-0.34684822552760153,-0.09771013140165863,0.044836071747286654,-0.04062457935146213
4.87,3.8968298699617994,1.5143496298040358,0.7534917851886508,1.5907798673745952,0.0370972800813707,0.004121363945026824,-0.012011096822409306,-0.030997606846399184,-0.3246732379517372,-0.09108794959138411,0.04243375248603254,-0.027192207757125608
4.88,3.8971849838387285,1.5143864003647234,0.7533737546816697,1.5904687583809223,0.033963141551949905,0.003243911734138627,-0.011599167052751796,-0.031201429321162655,-0.302085444991679,-0.08438982200583478,0.039936247140026415,-0.013534645539754031
4.89,3.897509892633407,1.514414732577387,0.7532597169971892,1.5901562978102721,0.031056956081200404,0.0024338211755349226,-0.011212692764879517,-0.031267544726378216,-0.27908218213204705,-0.07761559323271561,0.037342476212865794,0.0003494259225806928
4.9,3.897806896694326,1.5144353038661986,0.7531494127491213,1.5898438740807799,0.028382891690693635,0.0016918540581511432,-0.010852642012085995,-0.031193681376487203,-0.25566078485744015,-0.07076510785972845,0.03465136020815285,0.014461325251811541
4.91,3.8980783381834168,1.5144487992809912,0.7530425728168691,1.5895328983933668,0.025945143047153674,0.0010187737250476059,-0.010519993642629594,-0.03097755439971228,-0.2318185886524713,-0.06383821047457516,0.03186181962948598,0.028802371069873267
